Current Spreadsheet,Trial Number,Display,Screen,Response Type,Response,Reaction Time,display,block,block_trial,stimulus_id,expected_goal,fold,stimulus_name,c_group,condition,within_block_dist,paired_status,stimulus_path,expected_location,block_split,respStim_1,respStim_2,sub_label,acc,both_enc_acc,assoc_stim1_acc,assoc_stim2_acc,x_pos,y_pos,time_trajectories
cb_01,1.0,enc_trial,stim,response,Miami trip,1551.5,enc_trial,1.0,1.0,t_m_17_1,travel_Miami,fold-a,water gun,1.0,unique,close,paired,t_m_17_1.jpg,Miami,travel-b1,Iceland trip,Miami trip,sub-99,1.0,1.0,1.0,1.0,0.5108950328022493 0.5080834114339269 0.5045688847235239 0.5017572633552015 0.4975398313027179 0.4947282099343955 0.4905107778819119 0.4834817244611059 0.4750468603561387 0.4623945641986879 0.4230318650421743 0.3942127460168697 0.3780459231490159 0.3738284910965323 0.3738284910965323 0.3738284910965323 0.35766166822867856 0.3126757263355201 0.283153701968135 0.2599578256794752 0.2290299906279288 0.2107544517338332 0.2030224929709466 0.1995079662605436 0.19458762886597936 0.1910731021555764 0.1910731021555764 0.1931818181818182 0.1938847235238988 0.1966963448922212 0.2177835051546392 0.2740159325210872 0.3653936269915651 0.4652061855670103 0.5699390815370197 0.6746719775070289 0.8489925023430178 1.0436972820993442 1.0823570759137768 1.0823570759137768 1.0823570759137768 1.0823570759137768 1.0781396438612934 1.050023430178069 0.9860590440487348 0.9600515463917526 0.9558341143392692 0.9558341143392692 0.9530224929709468 0.9431818181818182 0.9333411433926898 0.9291237113402062 0.9235004686035616 0.9157685098406748 0.9080365510777882 0.9066307403936272 0.9059278350515464 0.9059278350515464 0.9045220243673852 0.9024133083411434 0.8946813495782568 0.8918697282099345 0.8904639175257733 0.8904639175257733 0.8904639175257733 0.8904639175257733,0.8322399250234301 0.8331771321462043 0.8359887535145267 0.8388003748828491 0.8416119962511714 0.8444236176194939 0.8472352389878163 0.8509840674789129 0.8575445173383318 0.8706654170571696 0.9334582942830364 0.9718837863167759 0.9887535145267105 0.9925023430178068 0.9925023430178068 0.9925023430178068 0.9934395501405808 0.9934395501405808 0.9887535145267105 0.9793814432989691 0.9550140581068416 0.9240862230552952 0.8809746954076851 0.8341143392689785 0.7806935332708529 0.7338331771321462 0.6907216494845361 0.6476101218369259 0.6223055295220243 0.5895032802249297 0.5426429240862229 0.4957825679475164 0.4517338331771321 0.4161199625117151 0.3945641986879101 0.38706654170571697 0.3758200562324273 0.3608247422680413 0.3580131208997188 0.3580131208997188 0.3570759137769447 0.3570759137769447 0.3570759137769447 0.3552014995313965 0.35426429240862234 0.3533270852858482 0.3552014995313965 0.3552014995313965 0.35426429240862234 0.3486410496719775 0.3364573570759137 0.32895970009372066 0.31115276476101217 0.2755388940955952 0.22492970946579194 0.20712277413308344 0.2014995313964386 0.1996251171508904 0.1968134957825679 0.18650421743205248 0.1649484536082474 0.1565135895032802 0.15370196813495784 0.15370196813495784 0.15370196813495784 0.15463917525773194,230.1999999999971 250.1999999999971 270.1999999999971 290.19999999999715 310.19999999999715 330.19999999999715 350.1999999999971 370.1999999999971 390.1999999999971 410.1999999999971 430.1999999999971 450.1999999999971 470.1999999999971 490.1999999999971 510.1999999999971 530.1999999999971 550.1999999999971 570.1999999999971 590.1999999999971 610.1999999999971 630.1999999999971 650.1999999999971 670.1999999999971 690.1999999999971 710.1999999999971 730.1999999999971 750.1999999999971 770.1999999999971 790.1999999999971 810.1999999999971 830.1999999999971 850.1999999999971 870.1999999999971 890.1999999999971 910.1999999999972 930.1999999999972 950.1999999999972 970.1999999999972 990.1999999999972 1010.1999999999972 1030.1999999999969 1050.1999999999969 1070.1999999999969 1090.1999999999969 1110.1999999999969 1130.1999999999969 1150.1999999999969 1170.1999999999969 1190.1999999999969 1210.1999999999969 1230.1999999999969 1250.1999999999969 1270.1999999999969 1290.1999999999969 1310.1999999999969 1330.1999999999969 1350.1999999999969 1370.1999999999969 1390.1999999999969 1410.1999999999969 1430.1999999999969 1450.1999999999969 1470.1999999999969 1490.1999999999969 1510.1999999999969 1530.1999999999969
cb_01,2.0,enc_trial,stim,response,Iceland trip,1573.9999999996217,enc_trial,1.0,2.0,t_i_10_1,travel_Iceland,fold-b,trekking poles,1.0,unique,far,paired,t_i_10_1.jpg,Iceland,travel-b1,Iceland trip,Miami trip,sub-99,1.0,1.0,1.0,1.0,0.5003514526710403 0.4771555763823805 0.4342783505154639 0.3935098406747891 0.35274133083411435 0.33024835988753515 0.30775538894095594 0.279639175257732 0.2571462043111528 0.23746485473289602 0.2149718837863168 0.20231958762886604 0.1910731021555764 0.1826382380506092 0.1685801312089972 0.1573336457357076 0.14819587628865982 0.13905810684161202 0.13484067478912842 0.12921743205248362 0.12218837863167765 0.12007966260543584 0.12007966260543584 0.12007966260543584 0.11937675726335525 0.11867385192127462 0.11937675726335525 0.12148547328959702 0.12218837863167765 0.12078256794751642 0.11937675726335525 0.11937675726335525 0.11937675726335525 0.12078256794751642,0.8247422680412371 0.8125585754451734 0.7872539831302718 0.7600749765698219 0.7188378631677601 0.6860356138706654 0.6485473289597001 0.5970009372071228 0.5501405810684161 0.507029053420806 0.4629803186504218 0.4358013120899719 0.415182755388941 0.3964386129334583 0.36457357075913777 0.34208059981255856 0.32333645735707595 0.3045923149015932 0.2933458294283037 0.2811621368322399 0.2680412371134021 0.2642924086223055 0.2633552014995314 0.2586691658856607 0.25210871602624185 0.2417994376757263 0.2286785379568884 0.20337394564198685 0.19025304592314907 0.1780693533270853 0.15276476101218373 0.1433926897844423 0.1424554826616682 0.14151827553889407,624.0999999999913 644.0999999999913 664.0999999999913 684.0999999999913 704.0999999999913 724.0999999999913 744.0999999999913 764.0999999999913 784.0999999999913 804.0999999999913 824.0999999999913 844.0999999999913 864.0999999999913 884.0999999999913 904.0999999999913 924.0999999999913 944.0999999999913 964.0999999999913 984.0999999999913 1004.0999999999913 1024.0999999999913 1044.0999999999913 1064.0999999999913 1084.0999999999913 1104.0999999999913 1124.0999999999913 1144.0999999999913 1164.0999999999913 1184.0999999999913 1204.0999999999913 1224.0999999999913 1244.0999999999913 1264.0999999999913 1284.0999999999913
cb_01,3.0,enc_trial,stim,response,Iceland trip,1927.1000000000204,enc_trial,1.0,3.0,t_i_18_1,travel_Iceland,fold-c-single,ski mask,1.0,unique,,single,t_i_18_1.jpg,Iceland,travel-b1,Iceland trip,Miami trip,sub-99,1.0,,1.0,,0.5003514526710403 0.5017572633552015 0.5038659793814433 0.5045688847235239 0.5059746954076851 0.5080834114339269 0.5101921274601687 0.5123008434864105 0.5130037488284911 0.5158153701968134 0.5361996251171509 0.5636129334582943 0.5875117150890347 0.6029756326148079 0.6128163074039362 0.6226569821930646 0.6381208997188379 0.6627225866916588 0.6880271790065604 0.7091143392689785 0.7252811621368324 0.7330131208997189 0.7435567010309279 0.7702671040299907 0.8096298031865042 0.8250937207122775 0.8279053420805998 0.8293111527647611 0.8300140581068417 0.8300140581068417 0.8300140581068417 0.8293111527647611 0.8279053420805998 0.8264995313964387 0.8222820993439551 0.8180646672914714 0.8110356138706655 0.7618322399250235 0.6465557638238051 0.5052717900656045 0.3330599812558576 0.26136363636363635 0.23043580131209002 0.22692127460168696 0.2262183692596064 0.223406747891284 0.2170805998125586 0.209348641049672 0.2030224929709466 0.1973992502343018 0.1868556701030928 0.1735004686035614 0.1587394564198688 0.13835520149953145 0.11937675726335525 0.11867385192127462 0.11867385192127462 0.11867385192127462 0.11867385192127462 0.11867385192127462 0.11867385192127462 0.11867385192127462 0.11867385192127462 0.11867385192127462 0.11867385192127462 0.11867385192127462 0.11867385192127462 0.11867385192127462 0.11867385192127462 0.11867385192127462 0.11867385192127462 0.11867385192127462 0.11867385192127462 0.11867385192127462 0.11867385192127462 0.11867385192127462 0.11867385192127462 0.11937675726335525,0.8350515463917526 0.8388003748828491 0.8425492033739457 0.8434864104967198 0.8444236176194939 0.8481724461105904 0.8491096532333646 0.8509840674789129 0.8509840674789129 0.8509840674789129 0.8462980318650422 0.8322399250234301 0.8163074039362699 0.802249297094658 0.7881911902530458 0.7685098406747891 0.7375820056232427 0.6888472352389878 0.6447985004686035 0.6082474226804124 0.5763823805060919 0.5520149953139644 0.5154639175257731 0.4526710402999062 0.38706654170571697 0.3626991565135895 0.3533270852858482 0.3467666354264293 0.34208059981255856 0.3364573570759137 0.3270852858481724 0.3214620431115276 0.3158388003748829 0.31021555763823805 0.2999062792877226 0.28772258669165884 0.2764761012183693 0.253045923149016 0.2408622305529522 0.238987816307404 0.2399250234301781 0.22961574507966265 0.22399250234301785 0.22118088097469546 0.2193064667291471 0.2146204311152765 0.2052483598875351 0.19587628865979376 0.18650421743205248 0.18088097469540765 0.16776007497656986 0.1565135895032802 0.14432989690721654 0.13120899718837864 0.12277413308341145 0.12277413308341145 0.12277413308341145 0.12277413308341145 0.12277413308341145 0.12277413308341145 0.12277413308341145 0.12277413308341145 0.12277413308341145 0.12277413308341145 0.12277413308341145 0.12277413308341145 0.12277413308341145 0.12277413308341145 0.12277413308341145 0.12277413308341145 0.12277413308341145 0.12277413308341145 0.12277413308341145 0.12277413308341145 0.12277413308341145 0.12277413308341145 0.12277413308341145 0.12277413308341145,333.40000000000873 353.4000000000088 373.4000000000088 393.4000000000088 413.4000000000088 433.4000000000088 453.4000000000088 473.4000000000088 493.4000000000088 513.4000000000087 533.4000000000087 553.4000000000087 573.4000000000087 593.4000000000087 613.4000000000087 633.4000000000087 653.4000000000087 673.4000000000087 693.4000000000087 713.4000000000087 733.4000000000087 753.4000000000087 773.4000000000087 793.4000000000087 813.4000000000087 833.4000000000087 853.4000000000087 873.4000000000087 893.4000000000087 913.4000000000087 933.4000000000087 953.4000000000087 973.4000000000087 993.4000000000087 1013.4000000000087 1033.4000000000087 1053.4000000000087 1073.4000000000087 1093.4000000000087 1113.4000000000087 1133.4000000000087 1153.4000000000087 1173.4000000000087 1193.4000000000087 1213.4000000000087 1233.4000000000087 1253.4000000000087 1273.4000000000087 1293.4000000000087 1313.4000000000087 1333.4000000000087 1353.4000000000087 1373.4000000000087 1393.400000000009 1413.400000000009 1433.400000000009 1453.400000000009 1473.400000000009 1493.400000000009 1513.400000000009 1533.400000000009 1553.400000000009 1573.400000000009 1593.400000000009 1613.400000000009 1633.400000000009 1653.400000000009 1673.400000000009 1693.400000000009 1713.400000000009 1733.400000000009 1753.400000000009 1773.400000000009 1793.400000000009 1813.400000000009 1833.400000000009 1853.400000000009 1873.400000000009
cb_01,4.0,enc_trial,stim,response,Miami trip,1154.8999999988882,enc_trial,1.0,4.0,t_m_17_2,travel_Miami,fold-a,water gun,1.0,unique,close,paired,t_m_17_2.jpg,Miami,travel-b1,Iceland trip,Miami trip,sub-99,1.0,1.0,1.0,1.0,0.5101921274601687 0.5186269915651359 0.5593955014058107 0.621954076850984 0.6957591377694471 0.7323102155576383 0.7625351452671041 0.8054123711340206 0.8314198687910028 0.8447750702905342 0.8511012183692597 0.8532099343955014 0.8553186504217433 0.8567244611059045 0.8588331771321462 0.8595360824742269 0.8595360824742269 0.8609418931583881 0.8609418931583881 0.8609418931583881 0.8609418931583881 0.8609418931583881 0.8602389878163075 0.8588331771321462 0.8588331771321462 0.8588331771321462 0.8609418931583881 0.8623477038425492 0.8630506091846298 0.8630506091846298,0.8266166822867854 0.8125585754451734 0.731958762886598 0.6035613870665417 0.4376757263355201 0.34957825679475163 0.26616682286785376 0.17525773195876293 0.13683223992502347 0.11715089034676662 0.10590440487347708 0.10215557638238047 0.09653233364573566 0.09278350515463918 0.08528584817244611 0.08153701968134963 0.07685098406747892 0.07029053420805997 0.07029053420805997 0.07029053420805997 0.07029053420805997 0.07029053420805997 0.0759137769447048 0.09090909090909094 0.11715089034676662 0.13027179006560452 0.1387066541705717 0.14620431115276478 0.14995313964386126 0.1518275538894096,503.0 523.0 543.0 563.0 583.0 603.0 623.0 643.0 663.0 683.0 703.0 723.0 743.0 763.0 783.0 803.0 823.0 843.0 863.0 883.0 903.0 923.0 943.0 963.0 983.0 1003.0 1023.0 1043.0 1063.0 1083.0
cb_01,5.0,enc_trial,stim,response,Miami trip,1305.8999999999942,enc_trial,1.0,5.0,t_m_07_1,travel_Miami,fold-c-single,sunglasses,1.0,unique,,single,t_m_07_1.jpg,Miami,travel-b1,Iceland trip,Miami trip,sub-99,1.0,,1.0,,0.5172211808809747 0.4961340206185567 0.4504451733833178 0.40616213683224 0.3597703842549204 0.3379803186504218 0.3372774133083412 0.39280693533270855 0.4834817244611059 0.5882146204311153 0.6957591377694471 0.7702671040299907 0.8257966260543581 0.8440721649484537 0.8447750702905342 0.8447750702905342 0.8447750702905342 0.8440721649484537 0.8419634489222119 0.836340206185567 0.8264995313964387 0.8194704779756327 0.8166588566073103 0.8166588566073103 0.8166588566073103 0.8166588566073103 0.8166588566073103 0.8187675726335519 0.8279053420805998 0.8370431115276477 0.8419634489222119 0.8433692596063731 0.8447750702905342 0.8468837863167761 0.8475866916588567,0.8003748828491096 0.7582005623242737 0.6776007497656982 0.5970009372071228 0.485473289597001 0.4245548266166823 0.3833177132146204 0.32895970009372066 0.28865979381443296 0.2483598875351453 0.20899718837863168 0.18088097469540765 0.15463917525773194 0.14151827553889407 0.14058106841611995 0.13683223992502347 0.13683223992502347 0.13589503280224935 0.13214620431115276 0.1255857544517338 0.11340206185567014 0.1030927835051546 0.10028116213683223 0.10028116213683223 0.10028116213683223 0.10028116213683223 0.10121836925960637 0.10590440487347708 0.11996251171508898 0.13214620431115276 0.14151827553889407 0.1433926897844423 0.14526710402999066 0.14807872539831302 0.14901593252108716,533.1999999999825 553.1999999999825 573.1999999999825 593.1999999999825 613.1999999999825 633.1999999999825 653.1999999999825 673.1999999999825 693.1999999999824 713.1999999999824 733.1999999999824 753.1999999999824 773.1999999999824 793.1999999999824 813.1999999999824 833.1999999999824 853.1999999999824 873.1999999999824 893.1999999999824 913.1999999999823 933.1999999999823 953.1999999999823 973.1999999999823 993.1999999999823 1013.1999999999823 1033.1999999999823 1053.1999999999823 1073.1999999999823 1093.1999999999823 1113.1999999999823 1133.1999999999825 1153.1999999999825 1173.1999999999825 1193.1999999999825 1213.1999999999825
cb_01,6.0,enc_trial,stim,response,Miami trip,1736.6999999996333,enc_trial,1.0,6.0,t_s_21_1,travel_shared,fold-b,umbrella,1.0,competing,far,paired,t_s_21_1.jpg,,travel-b1,Iceland trip,Miami trip,sub-99,0.0,0.0,1.0,1.0,0.5094892221180881 0.5094892221180881 0.5094892221180881 0.5094892221180881 0.5094892221180881 0.5094892221180881 0.5094892221180881 0.5094892221180881 0.5094892221180881 0.5094892221180881 0.5094892221180881 0.5094892221180881 0.5094892221180881 0.5094892221180881 0.5094892221180881 0.5094892221180881 0.5094892221180881 0.5094892221180881 0.5094892221180881 0.5094892221180881 0.5101921274601687 0.5101921274601687 0.5108950328022493 0.5115979381443299 0.5151124648547329 0.5172211808809747 0.5186269915651359 0.5228444236176195 0.5277647610121837 0.5333880037488284 0.5425257731958762 0.5488519212746017 0.5572867853795689 0.5671274601686973 0.5762652296157451 0.5811855670103093 0.5889175257731959 0.5959465791940018 0.5987582005623243 0.5987582005623243 0.590323336457357 0.572750702905342 0.5481490159325211 0.5158153701968134 0.4630974695407685 0.4251405810684161 0.3899953139643861 0.3485238987816308 0.3204076850984068 0.2979147141518276 0.2789362699156513 0.2740159325210872 0.2697985004686036 0.2648781630740394 0.25503748828491096 0.2466026241799437 0.2409793814432989 0.2388706654170572 0.2395735707591378 0.244493908153702 0.2712043111527648 0.32603092783505155 0.4124882849109653 0.4947282099343955 0.5854029990627929 0.6648313027179007 0.7435567010309279 0.7906513589503281 0.7955716963448923 0.8018978444236177 0.8096298031865042 0.8124414245548267 0.8138472352389878 0.8152530459231491 0.8194704779756327 0.8215791940018745 0.8222820993439551 0.8243908153701969 0.8328256794751641 0.8426663542642925 0.8525070290534209 0.8553186504217433,0.8069353327085286 0.8069353327085286 0.8069353327085286 0.8069353327085286 0.8069353327085286 0.8069353327085286 0.8069353327085286 0.8069353327085286 0.8069353327085286 0.8069353327085286 0.8069353327085286 0.8069353327085286 0.8069353327085286 0.8069353327085286 0.8069353327085286 0.8069353327085286 0.8069353327085286 0.8069353327085286 0.8069353327085286 0.8069353327085286 0.8059981255857545 0.8050609184629803 0.8050609184629803 0.803186504217432 0.8013120899718837 0.7994376757263355 0.7975632614807873 0.7900656044985942 0.7825679475164011 0.7731958762886598 0.753514526710403 0.7357075913776945 0.7188378631677601 0.7029053420805997 0.6897844423617621 0.6776007497656982 0.6579194001874414 0.6363636363636364 0.6288659793814433 0.6223055295220243 0.6101218369259607 0.5932521087160263 0.5726335520149953 0.5445173383317713 0.5032802249297095 0.4751640112464854 0.4507966260543579 0.4245548266166823 0.4029990627928772 0.3823805060918463 0.3589503280224929 0.3486410496719775 0.3402061855670103 0.33270852858481725 0.3158388003748829 0.2989690721649485 0.28209934395501396 0.2736644798500468 0.2727272727272727 0.2708528584817245 0.26897844423617623 0.2633552014995314 0.2455482661668229 0.2305529522024368 0.22399250234301785 0.21274601686972816 0.19025304592314907 0.1658856607310215 0.16213683223992506 0.15838800374882844 0.15745079662605432 0.1565135895032802 0.15463917525773194 0.15276476101218373 0.14995313964386126 0.14901593252108716 0.14807872539831302 0.14807872539831302 0.14995313964386126 0.15370196813495784 0.15838800374882844 0.15838800374882844,48.60000000000582 68.60000000000582 88.60000000000582 108.60000000000582 128.60000000000582 148.60000000000582 168.60000000000582 188.60000000000585 208.60000000000585 228.60000000000585 248.60000000000585 268.6000000000058 288.6000000000058 308.6000000000058 328.6000000000058 348.6000000000058 368.6000000000058 388.6000000000058 408.6000000000058 428.6000000000058 448.6000000000058 468.6000000000058 488.6000000000058 508.6000000000058 528.6000000000058 548.6000000000058 568.6000000000057 588.6000000000057 608.6000000000057 628.6000000000057 648.6000000000057 668.6000000000057 688.6000000000058 708.6000000000058 728.6000000000058 748.6000000000058 768.6000000000058 788.6000000000058 808.6000000000058 828.6000000000058 848.6000000000058 868.6000000000058 888.6000000000058 908.6000000000058 928.6000000000058 948.6000000000058 968.6000000000058 988.6000000000058 1008.6000000000058 1028.6000000000058 1048.6000000000058 1068.6000000000058 1088.6000000000058 1108.6000000000058 1128.6000000000058 1148.6000000000058 1168.6000000000058 1188.6000000000058 1208.6000000000058 1228.6000000000058 1248.6000000000058 1268.6000000000058 1288.6000000000058 1308.6000000000058 1328.6000000000058 1348.6000000000058 1368.6000000000058 1388.6000000000058 1408.6000000000058 1428.6000000000058 1448.6000000000058 1468.6000000000058 1488.6000000000058 1508.6000000000058 1528.6000000000058 1548.6000000000058 1568.6000000000058 1588.6000000000058 1608.6000000000058 1628.6000000000058 1648.6000000000058 1668.6000000000058
cb_01,7.0,enc_trial,stim,response,Iceland trip,1749.2999999996387,enc_trial,1.0,7.0,t_i_13_1,travel_Iceland,fold-a,sleeping bag,1.0,unique,close,paired,t_i_13_1.jpg,Iceland,travel-b1,Iceland trip,Miami trip,sub-99,1.0,1.0,1.0,1.0,0.5052717900656045 0.5045688847235239 0.5038659793814433 0.5031630740393627 0.5003514526710403 0.4926194939081537 0.4666119962511715 0.3942127460168697 0.34290065604498593 0.3021321462043112 0.258552014995314 0.23395032802249305 0.2205951265229616 0.2114573570759138 0.1966963448922212 0.181232427366448 0.17139175257731962 0.1622539831302718 0.15592783505154642 0.14819587628865982 0.14257263355201502 0.14257263355201502 0.14468134957825682 0.14679006560449862 0.1488987816307404 0.15030459231490162 0.1517104029990628 0.1517104029990628 0.1517104029990628 0.1517104029990628 0.1517104029990628 0.1517104029990628 0.1510074976569822 0.15030459231490162 0.15030459231490162 0.15030459231490162 0.15030459231490162 0.15030459231490162 0.15030459231490162 0.15030459231490162 0.14960168697282095 0.14960168697282095 0.14960168697282095 0.14960168697282095 0.1488987816307404,0.8228678537956888 0.8219306466729147 0.8200562324273665 0.8191190253045924 0.8116213683223993 0.7919400187441424 0.7432052483598875 0.6457357075913777 0.5820056232427366 0.5257731958762887 0.44892221180880976 0.3964386129334583 0.3580131208997188 0.33270852858481725 0.29615745079662603 0.2727272727272727 0.2511715089034676 0.2277413308341143 0.21087160262417992 0.1996251171508904 0.1911902530459232 0.19025304592314907 0.18837863167760072 0.1855670103092784 0.18369259606373006 0.18275538894095605 0.18275538894095605 0.18275538894095605 0.18275538894095605 0.18275538894095605 0.1818181818181817 0.1790065604498594 0.17619493908153705 0.17525773195876293 0.17525773195876293 0.17525773195876293 0.17525773195876293 0.17525773195876293 0.17525773195876293 0.17525773195876293 0.17525773195876293 0.17525773195876293 0.17525773195876293 0.17525773195876293 0.17525773195876293,660.5 680.5 700.5 720.5 740.5 760.5 780.5 800.5 820.5 840.5 860.5 880.5 900.5 920.5 940.5 960.5 980.5 1000.5 1020.5 1040.5 1060.5 1080.5 1100.5 1120.5 1140.5 1160.5 1180.5 1200.5 1220.5 1240.5 1260.5 1280.5 1300.5 1320.5 1340.5 1360.5 1380.5 1400.5 1420.5 1440.5 1460.5 1480.5 1500.5 1520.5 1540.5
cb_01,8.0,enc_trial,stim,response,Miami trip,1979.899999999616,enc_trial,1.0,8.0,t_s_12_1,travel_shared,fold-b,clear toiletry bag,1.0,competing,far,paired,t_s_12_1.jpg,,travel-b1,Iceland trip,Miami trip,sub-99,1.0,1.0,0.0,0.0,0.4989456419868791 0.4989456419868791 0.4982427366447985 0.4961340206185567 0.4919165885660731 0.4905107778819119 0.4905107778819119 0.4905107778819119 0.4905107778819119 0.4905107778819119 0.4905107778819119 0.4905107778819119 0.4905107778819119 0.4905107778819119 0.4905107778819119 0.4905107778819119 0.4905107778819119 0.4905107778819119 0.4905107778819119 0.4905107778819119 0.4905107778819119 0.4905107778819119 0.4905107778819119 0.4905107778819119 0.4905107778819119 0.4905107778819119 0.4905107778819119 0.4905107778819119 0.4905107778819119 0.4905107778819119 0.4905107778819119 0.4905107778819119 0.4905107778819119 0.4891049671977507 0.4848875351452671 0.4792642924086223 0.4736410496719775 0.4659090909090909 0.4645032802249297 0.4623945641986879 0.4602858481724461 0.4553655107778819 0.4469306466729147 0.4363870665417057 0.4258434864104968 0.4230318650421743 0.4223289597000937 0.4363870665417057 0.4630974695407685 0.5087863167760075 0.5847000937207123 0.6549906279287723 0.7309044048734771 0.7779990627928773 0.8117385192127461 0.8264995313964387 0.836340206185567 0.8447750702905342 0.8489925023430178 0.853912839737582 0.8616447985004687 0.8644564198687911 0.8686738519212747 0.8721883786316776 0.8764058106841612 0.8771087160262419 0.8771087160262419 0.8771087160262419 0.8771087160262419 0.8771087160262419,0.8313027179006559 0.8313027179006559 0.8322399250234301 0.8331771321462043 0.8359887535145267 0.8369259606373008 0.8369259606373008 0.8369259606373008 0.8369259606373008 0.8369259606373008 0.8369259606373008 0.8369259606373008 0.8369259606373008 0.8369259606373008 0.8369259606373008 0.8369259606373008 0.8369259606373008 0.8369259606373008 0.8369259606373008 0.8369259606373008 0.8369259606373008 0.8369259606373008 0.8369259606373008 0.8369259606373008 0.8369259606373008 0.8369259606373008 0.8369259606373008 0.8369259606373008 0.8369259606373008 0.8369259606373008 0.8369259606373008 0.8369259606373008 0.8369259606373008 0.8369259606373008 0.8369259606373008 0.8350515463917526 0.8331771321462043 0.8284910965323337 0.8256794751640113 0.8247422680412371 0.8219306466729147 0.8163074039362699 0.8069353327085286 0.7928772258669166 0.7750702905342081 0.7628865979381443 0.7422680412371134 0.6888472352389878 0.6344892221180881 0.5670103092783505 0.4629803186504218 0.38144329896907214 0.2970946579194001 0.2417994376757263 0.20431115276476086 0.19400187441424555 0.18837863167760072 0.18088097469540765 0.1780693533270853 0.17525773195876293 0.17338331771321458 0.1696344892221181 0.16213683223992506 0.15557638238050608 0.15276476101218373 0.1518275538894096 0.1518275538894096 0.1518275538894096 0.1518275538894096 0.15089034676663535,363.59999999997666 383.59999999997666 403.59999999997666 423.59999999997666 443.59999999997666 463.59999999997666 483.59999999997666 503.59999999997666 523.5999999999766 543.5999999999766 563.5999999999767 583.5999999999767 603.5999999999767 623.5999999999767 643.5999999999767 663.5999999999767 683.5999999999767 703.5999999999768 723.5999999999768 743.5999999999768 763.5999999999768 783.5999999999768 803.5999999999768 823.5999999999768 843.5999999999768 863.5999999999768 883.5999999999768 903.5999999999768 923.5999999999768 943.5999999999768 963.5999999999768 983.5999999999768 1003.5999999999768 1023.5999999999768 1043.5999999999767 1063.5999999999767 1083.5999999999767 1103.5999999999767 1123.5999999999767 1143.5999999999767 1163.5999999999767 1183.5999999999767 1203.5999999999767 1223.5999999999767 1243.5999999999767 1263.5999999999767 1283.5999999999767 1303.5999999999767 1323.5999999999767 1343.5999999999767 1363.5999999999767 1383.5999999999767 1403.5999999999767 1423.5999999999767 1443.5999999999767 1463.5999999999767 1483.5999999999767 1503.5999999999767 1523.5999999999767 1543.5999999999767 1563.5999999999767 1583.5999999999767 1603.5999999999767 1623.5999999999767 1643.5999999999767 1663.5999999999767 1683.5999999999767 1703.5999999999767 1723.5999999999767 1743.5999999999767
cb_01,9.0,enc_trial,stim,response,Iceland trip,1576.499999998894,enc_trial,1.0,9.0,t_m_03_1,travel_Miami,fold-c-single,wetsuit,1.0,unique,,single,t_m_03_1.jpg,Miami,travel-b1,Iceland trip,Miami trip,sub-99,0.0,,1.0,,0.4975398313027179 0.4975398313027179 0.4989456419868791 0.4989456419868791 0.4989456419868791 0.4989456419868791 0.4989456419868791 0.4989456419868791 0.4989456419868791 0.4989456419868791 0.4989456419868791 0.4989456419868791 0.4989456419868791 0.4989456419868791 0.4989456419868791 0.4989456419868791 0.4989456419868791 0.4989456419868791 0.4989456419868791 0.4989456419868791 0.4989456419868791 0.4989456419868791 0.4989456419868791 0.4989456419868791 0.4989456419868791 0.4982427366447985 0.4975398313027179 0.4968369259606373 0.4968369259606373 0.4968369259606373 0.4968369259606373 0.4968369259606373 0.4947282099343955 0.4876991565135895 0.4666119962511715 0.4469306466729147 0.4174086223055296 0.363987816307404 0.33446579194001874 0.3105670103092784 0.2782333645735708 0.2599578256794752 0.2458997188378632 0.2262183692596064 0.1889643861293346 0.16155107778819122 0.1474929709465792 0.1418697282099344 0.13905810684161202 0.13624648547328966 0.13484067478912842 0.13484067478912842 0.13624648547328966 0.13694939081537022 0.1376522961574508 0.1376522961574508 0.1376522961574508 0.1376522961574508 0.1376522961574508 0.1376522961574508 0.1376522961574508 0.1376522961574508 0.1376522961574508 0.1376522961574508 0.13835520149953145,0.8144329896907216 0.8144329896907216 0.8144329896907216 0.8144329896907216 0.8144329896907216 0.8144329896907216 0.8144329896907216 0.8144329896907216 0.8144329896907216 0.8144329896907216 0.8144329896907216 0.8144329896907216 0.8144329896907216 0.8144329896907216 0.8144329896907216 0.8144329896907216 0.8144329896907216 0.8144329896907216 0.8144329896907216 0.8144329896907216 0.8144329896907216 0.8144329896907216 0.8144329896907216 0.8144329896907216 0.8134957825679475 0.8134957825679475 0.8134957825679475 0.8134957825679475 0.8134957825679475 0.8134957825679475 0.8134957825679475 0.8134957825679475 0.8116213683223993 0.7947516401124648 0.7375820056232427 0.6794751640112464 0.6101218369259607 0.5164011246485474 0.4639175257731959 0.4189315838800375 0.3701968134957826 0.3467666354264293 0.3280224929709465 0.3036551077788191 0.25773195876288657 0.2221180880974696 0.1996251171508904 0.18931583880037486 0.18275538894095605 0.1780693533270853 0.17525773195876293 0.17525773195876293 0.1743205248359887 0.1743205248359887 0.17338331771321458 0.17338331771321458 0.17338331771321458 0.17338331771321458 0.17338331771321458 0.17338331771321458 0.17338331771321458 0.17338331771321458 0.17338331771321458 0.17338331771321458 0.17338331771321458,242.70000000001164 262.70000000001164 282.70000000001164 302.70000000001164 322.70000000001164 342.70000000001164 362.7000000000117 382.7000000000117 402.7000000000117 422.7000000000117 442.7000000000117 462.7000000000117 482.7000000000117 502.7000000000117 522.7000000000116 542.7000000000116 562.7000000000116 582.7000000000116 602.7000000000116 622.7000000000116 642.7000000000116 662.7000000000116 682.7000000000116 702.7000000000116 722.7000000000116 742.7000000000116 762.7000000000116 782.7000000000116 802.7000000000116 822.7000000000116 842.7000000000116 862.7000000000116 882.7000000000116 902.7000000000116 922.7000000000116 942.7000000000116 962.7000000000116 982.7000000000116 1002.7000000000116 1022.7000000000116 1042.7000000000116 1062.7000000000116 1082.7000000000116 1102.7000000000116 1122.7000000000116 1142.7000000000114 1162.7000000000114 1182.7000000000114 1202.7000000000114 1222.7000000000114 1242.7000000000114 1262.7000000000114 1282.7000000000114 1302.7000000000114 1322.7000000000114 1342.7000000000114 1362.7000000000114 1382.7000000000116 1402.7000000000116 1422.7000000000116 1442.7000000000116 1462.7000000000116 1482.7000000000116 1502.7000000000116 1522.7000000000116
cb_01,10.0,enc_trial,stim,response,Iceland trip,2442.1000000000063,enc_trial,1.0,10.0,t_i_13_2,travel_Iceland,fold-a,sleeping bag,1.0,unique,close,paired,t_i_13_2.jpg,Iceland,travel-b1,Iceland trip,Miami trip,sub-99,1.0,1.0,1.0,1.0,0.5277647610121837 0.5312792877225867 0.5397141518275539 0.5453373945641987 0.5509606373008434 0.5565838800374883 0.5678303655107779 0.5917291471415183 0.6114104967197751 0.6282802249297095 0.6444470477975632 0.6479615745079662 0.6479615745079662 0.6479615745079662 0.6620196813495782 0.6760777881911902 0.6873242736644798 0.6908388003748829 0.6915417057169634 0.6915417057169634 0.6915417057169634 0.6978678537956888 0.7055998125585754 0.7119259606373008 0.7189550140581068 0.7280927835051547 0.7407450796626055 0.7639409559512653 0.7815135895032803 0.7983833177132147 0.8124414245548267 0.8180646672914714 0.8222820993439551 0.8250937207122775 0.8229850046860356 0.8208762886597939 0.8180646672914714 0.8152530459231491 0.8138472352389878 0.8124414245548267 0.8138472352389878 0.8173617619493909 0.8222820993439551 0.8250937207122775 0.8314198687910028 0.8377460168697283 0.8426663542642925 0.8461808809746955 0.8461808809746955 0.8489925023430178 0.8511012183692597 0.8518041237113403 0.8518041237113403 0.8518041237113403 0.8518041237113403 0.8518041237113403 0.8518041237113403 0.8518041237113403 0.8518041237113403 0.8518041237113403 0.8518041237113403 0.8511012183692597 0.8496954076850984 0.8433692596063731 0.8040065604498595 0.7266869728209935 0.636012183692596 0.5734536082474226 0.5558809746954076 0.5383083411433927 0.5052717900656045 0.4806701030927835 0.4595829428303655 0.4384957825679475 0.4047563261480787 0.3801546391752577 0.3520384254920337 0.3204076850984068 0.3091611996251172 0.3021321462043112 0.2733130271790066 0.2318416119962512 0.1784208059981256 0.1474929709465792 0.14046391752577322 0.13905810684161202 0.1376522961574508 0.13273195876288665 0.12851452671040306,0.8256794751640113 0.8238050609184631 0.8219306466729147 0.8200562324273665 0.8200562324273665 0.8181818181818181 0.8144329896907216 0.803186504217432 0.7919400187441424 0.7806935332708529 0.7713214620431115 0.7703842549203375 0.7703842549203375 0.7694470477975632 0.7600749765698219 0.7450796626054358 0.7338331771321462 0.731958762886598 0.731958762886598 0.731958762886598 0.7244611059044048 0.7094657919400187 0.6935332708528585 0.6813495782567948 0.662605435801312 0.6251171508903468 0.5716963448922212 0.4798500468603562 0.43017806935332703 0.3851921274601687 0.34208059981255856 0.3149015932521088 0.2895970009372071 0.26522961574507964 0.23336457357075915 0.21836925960637305 0.20337394564198685 0.18650421743205248 0.1790065604498594 0.17244611059044046 0.17150890346766634 0.17150890346766634 0.17150890346766634 0.17057169634489222 0.16776007497656986 0.1658856607310215 0.1658856607310215 0.16401124648547327 0.16401124648547327 0.16213683223992506 0.15932521087160267 0.15838800374882844 0.15838800374882844 0.15838800374882844 0.15838800374882844 0.15838800374882844 0.15838800374882844 0.15838800374882844 0.15838800374882844 0.15838800374882844 0.15838800374882844 0.15838800374882844 0.15838800374882844 0.15932521087160267 0.15838800374882844 0.14901593252108716 0.13589503280224935 0.12652296157450793 0.12371134020618554 0.11902530459231485 0.10965323336457357 0.098406747891284 0.08903467666354259 0.08153701968134963 0.07310215557638232 0.0712277413308341 0.07029053420805997 0.07216494845360821 0.07497656982193067 0.07778819119025304 0.09090909090909094 0.10590440487347708 0.12277413308341145 0.13495782567947512 0.14058106841611995 0.14151827553889407 0.1424554826616682 0.14526710402999066 0.14620431115276478,684.6999999999825 704.6999999999824 724.6999999999824 744.6999999999824 764.6999999999824 784.6999999999824 804.6999999999824 824.6999999999824 844.6999999999824 864.6999999999824 884.6999999999824 904.6999999999823 924.6999999999823 944.6999999999823 964.6999999999823 984.6999999999823 1004.6999999999823 1024.6999999999823 1044.6999999999823 1064.6999999999823 1084.6999999999823 1104.6999999999823 1124.6999999999823 1144.6999999999825 1164.6999999999825 1184.6999999999825 1204.6999999999825 1224.6999999999825 1244.6999999999825 1264.6999999999825 1284.6999999999825 1304.6999999999825 1324.6999999999825 1344.6999999999825 1364.6999999999825 1384.6999999999825 1404.6999999999825 1424.6999999999825 1444.6999999999825 1464.6999999999825 1484.6999999999825 1504.6999999999825 1524.6999999999825 1544.6999999999825 1564.6999999999825 1584.6999999999825 1604.6999999999825 1624.6999999999825 1644.6999999999825 1664.6999999999825 1684.6999999999825 1704.6999999999825 1724.6999999999825 1744.6999999999825 1764.6999999999825 1784.6999999999825 1804.6999999999825 1824.6999999999825 1844.6999999999825 1864.6999999999825 1884.6999999999825 1904.6999999999825 1924.6999999999825 1944.6999999999825 1964.6999999999825 1984.6999999999825 2004.6999999999825 2024.6999999999825 2044.6999999999825 2064.6999999999825 2084.6999999999825 2104.6999999999825 2124.6999999999825 2144.6999999999825 2164.6999999999825 2184.6999999999825 2204.6999999999825 2224.6999999999825 2244.6999999999825 2264.6999999999825 2284.6999999999825 2304.6999999999825 2324.6999999999825 2344.6999999999825 2364.6999999999825 2384.6999999999825 2404.6999999999825 2424.6999999999825 2444.6999999999825
cb_01,11.0,enc_trial,stim,response,Iceland trip,1553.7999999999884,enc_trial,1.0,11.0,t_i_19_1,travel_Iceland,fold-b,rope,1.0,unique,far,paired,t_i_19_1.jpg,Iceland,travel-b1,Iceland trip,Miami trip,sub-99,0.0,0.0,1.0,0.0,0.5144095595126523 0.5123008434864105 0.5080834114339269 0.5031630740393627 0.4947282099343955 0.4905107778819119 0.4862933458294283 0.4750468603561387 0.4652061855670103 0.4588800374882849 0.4532567947516401 0.4504451733833178 0.4469306466729147 0.4434161199625117 0.4441190253045923 0.4441190253045923 0.4427132146204311 0.4272492970946579 0.3977272727272727 0.3611761949390816 0.31900187441424555 0.2901827553889409 0.2564432989690722 0.2184864104967198 0.1770149953139644 0.167174320524836 0.16365979381443302 0.1552249297094658 0.14679006560449862 0.14257263355201502 0.1418697282099344 0.1418697282099344 0.1411668228678538 0.135543580131209 0.12921743205248362 0.12921743205248362 0.12921743205248362 0.13062324273664486,0.8163074039362699 0.8069353327085286 0.7797563261480787 0.7460168697282099 0.7000937207122775 0.6729147141518276 0.6438612933458294 0.5895032802249297 0.5520149953139644 0.5220243673851921 0.4817244611059044 0.4498594189315839 0.415182755388941 0.38144329896907214 0.34582942830365515 0.3298969072164949 0.3177132146204311 0.2867853795688847 0.25210871602624185 0.21836925960637305 0.1921274601686973 0.18088097469540765 0.17150890346766634 0.1602624179943768 0.1471415182755389 0.1433926897844423 0.1424554826616682 0.14151827553889407 0.14058106841611995 0.14058106841611995 0.14058106841611995 0.14058106841611995 0.14058106841611995 0.14058106841611995 0.14058106841611995 0.14058106841611995 0.14058106841611995 0.14058106841611995,812.0999999999768 832.0999999999768 852.0999999999768 872.0999999999768 892.0999999999768 912.0999999999768 932.0999999999768 952.0999999999768 972.0999999999768 992.0999999999768 1012.0999999999768 1032.0999999999767 1052.0999999999767 1072.0999999999767 1092.0999999999767 1112.0999999999767 1132.0999999999767 1152.0999999999767 1172.0999999999767 1192.0999999999767 1212.0999999999767 1232.0999999999767 1252.0999999999767 1272.0999999999767 1292.0999999999767 1312.0999999999767 1332.0999999999767 1352.0999999999767 1372.0999999999767 1392.0999999999767 1412.0999999999767 1432.0999999999767 1452.0999999999767 1472.0999999999767 1492.0999999999767 1512.0999999999767 1532.0999999999767 1552.0999999999767
cb_01,12.0,enc_trial,stim,response,Iceland trip,1292.3999999996158,enc_trial,1.0,12.0,t_i_14_1,travel_Iceland,fold-c-single,snow pants,1.0,unique,,single,t_i_14_1.jpg,Iceland,travel-b1,Iceland trip,Miami trip,sub-99,1.0,,1.0,,0.5045688847235239 0.4701265229615745 0.3316541705716963 0.10250702905342082 -0.09992970946579192 -0.09992970946579192 -0.09992970946579192 -0.0936035613870665 -0.08587160262417991 -0.07884254920337391 -0.06759606373008432 -0.05775538894095592 -0.047211808809746916 -0.03385660731021553 -0.015581068416119937 -0.0022258669165885394 0.014643861293345856 0.04135426429240865 0.05962980318650424 0.07579662605435804 0.10813027179006562 0.12851452671040306 0.13905810684161202 0.14046391752577322 0.14046391752577322,0.8088097469540768 0.7291471415182755 0.5548266166822868 0.3402061855670103 0.14807872539831302 0.07497656982193067 0.0534208059981256 0.05248359887535148 0.05248359887535148 0.0534208059981256 0.0581068416119962 0.06091846298031866 0.06466729147141513 0.0665417057169635 0.06747891283973761 0.0665417057169635 0.0665417057169635 0.07403936269915656 0.08153701968134963 0.08716026241799435 0.098406747891284 0.10777881911902533 0.1162136832239925 0.11808809746954076 0.1208997188378632,733.2999999999884 753.2999999999884 773.2999999999884 793.2999999999884 813.2999999999884 833.2999999999884 853.2999999999884 873.2999999999884 893.2999999999884 913.2999999999884 933.2999999999884 953.2999999999884 973.2999999999884 993.2999999999884 1013.2999999999884 1033.2999999999884 1053.2999999999884 1073.2999999999884 1093.2999999999884 1113.2999999999884 1133.2999999999886 1153.2999999999886 1173.2999999999886 1193.2999999999886 1213.2999999999886
cb_01,13.0,enc_trial,stim,response,Miami trip,1371.3999999999942,enc_trial,1.0,13.0,t_s_08_1,travel_shared,fold-a,hand lotion,1.0,competing,close,paired,t_s_08_1.jpg,,travel-b1,Iceland trip,Miami trip,sub-99,0.0,0.0,1.0,1.0,0.5087863167760075 0.5087863167760075 0.5073805060918463 0.5066776007497656 0.5333880037488284 0.6332005623242737 0.8377460168697283 1.0879803186504218 1.0992268041237114 1.0992268041237114 1.0992268041237114 1.0950093720712275 1.0936035613870665 1.0907919400187442 1.0823570759137768 1.0711105904404874 1.0598641049671975 1.0436972820993442 1.029639175257732 1.0162839737582006 1.0036316776007501 0.9951968134957826 0.9860590440487348 0.9762183692596064 0.9663776944704779 0.9614573570759138 0.9572399250234302 0.9516166822867854 0.9481021555763824 0.9431818181818182 0.934746954076851 0.931232427366448 0.9284208059981256 0.9270149953139644,0.8013120899718837 0.7975632614807873 0.7947516401124648 0.7806935332708529 0.6869728209934396 0.5463917525773196 0.3711340206185567 0.1855670103092784 0.10215557638238047 0.08153701968134963 0.07403936269915656 0.06841611996251172 0.0665417057169635 0.0665417057169635 0.0627928772258669 0.06091846298031866 0.05904404873477043 0.05904404873477043 0.0627928772258669 0.0665417057169635 0.07216494845360821 0.07966260543580128 0.08809746954076847 0.09465791940018743 0.10028116213683223 0.1030927835051546 0.10496719775070296 0.10777881911902533 0.10965323336457357 0.11246485473289602 0.11527647610121836 0.1162136832239925 0.11808809746954076 0.11902530459231485,648.2999999999884 668.2999999999884 688.2999999999884 708.2999999999884 728.2999999999884 748.2999999999884 768.2999999999884 788.2999999999884 808.2999999999884 828.2999999999884 848.2999999999884 868.2999999999884 888.2999999999884 908.2999999999884 928.2999999999884 948.2999999999884 968.2999999999884 988.2999999999884 1008.2999999999884 1028.2999999999884 1048.2999999999884 1068.2999999999884 1088.2999999999884 1108.2999999999884 1128.2999999999886 1148.2999999999886 1168.2999999999886 1188.2999999999886 1208.2999999999886 1228.2999999999886 1248.2999999999886 1268.2999999999886 1288.2999999999886 1308.2999999999886
cb_01,14.0,enc_trial,stim,response,Iceland trip,1304.2000000000114,enc_trial,1.0,14.0,t_m_18_1,travel_Miami,fold-b,waterproof tote,1.0,unique,far,paired,t_m_18_1.jpg,Miami,travel-b1,Iceland trip,Miami trip,sub-99,1.0,1.0,1.0,0.0,0.4968369259606373 0.4961340206185567 0.4926194939081537 0.4841846298031865 0.4616916588566073 0.4370899718837864 0.3984301780693533 0.34571227741330834 0.311269915651359 0.27753045923149017 0.244493908153702 0.2079428303655108 0.1910731021555764 0.181232427366448 0.1678772258669166 0.1545220243673852 0.1439784442361762 0.13624648547328966 0.13343486410496722 0.13062324273664486 0.12921743205248362 0.12921743205248362 0.12921743205248362 0.12921743205248362 0.12921743205248362 0.12921743205248362,0.7910028116213683 0.7872539831302718 0.7788191190253047 0.7582005623242737 0.7150890346766635 0.6757263355201499 0.6204311152764761 0.5323336457357075 0.4676663542642924 0.4058106841611996 0.3448922211808809 0.28209934395501396 0.2502343017806935 0.2258669165885661 0.19493908153701967 0.16776007497656986 0.14995313964386126 0.13402061855670094 0.12652296157450793 0.11902530459231485 0.11715089034676662 0.11715089034676662 0.11715089034676662 0.11715089034676662 0.11715089034676662 0.11808809746954076,587.7000000000116 607.7000000000116 627.7000000000116 647.7000000000116 667.7000000000116 687.7000000000116 707.7000000000116 727.7000000000116 747.7000000000116 767.7000000000116 787.7000000000116 807.7000000000116 827.7000000000116 847.7000000000116 867.7000000000116 887.7000000000116 907.7000000000116 927.7000000000116 947.7000000000116 967.7000000000116 987.7000000000116 1007.7000000000116 1027.7000000000116 1047.7000000000116 1067.7000000000116 1087.7000000000116
cb_01,15.0,enc_trial,stim,response,Miami trip,1532.7999999996387,enc_trial,1.0,15.0,t_s_22_1,travel_shared,fold-a,belt,1.0,competing,close,paired,t_s_22_1.jpg,,travel-b1,Iceland trip,Miami trip,sub-99,1.0,1.0,1.0,1.0,0.5094892221180881 0.5094892221180881 0.5094892221180881 0.5094892221180881 0.5094892221180881 0.5101921274601687 0.5108950328022493 0.5115979381443299 0.5123008434864105 0.5123008434864105 0.5123008434864105 0.5123008434864105 0.5123008434864105 0.5123008434864105 0.5137066541705717 0.5158153701968134 0.5172211808809747 0.5186269915651359 0.5193298969072165 0.520032802249297 0.5207357075913777 0.5214386129334583 0.5214386129334583 0.5235473289597001 0.5291705716963448 0.5390112464854733 0.5608013120899719 0.6135192127460168 0.6599109653233365 0.7126288659793815 0.7815135895032803 0.8229850046860356 0.8426663542642925 0.8489925023430178 0.853912839737582 0.8616447985004687 0.8686738519212747 0.8785145267104031 0.8841377694470478 0.8869493908153703 0.8883552014995315 0.8897610121836926 0.8897610121836926 0.8897610121836926 0.8897610121836926 0.8897610121836926 0.8897610121836926 0.8876522961574509 0.8862464854732897,0.8247422680412371 0.8247422680412371 0.8247422680412371 0.8247422680412371 0.8238050609184631 0.8238050609184631 0.8219306466729147 0.8200562324273665 0.8200562324273665 0.8200562324273665 0.8200562324273665 0.8200562324273665 0.8200562324273665 0.8200562324273665 0.8181818181818181 0.8144329896907216 0.8106841611996252 0.8050609184629803 0.802249297094658 0.7975632614807873 0.7863167760074976 0.7760074976569822 0.7600749765698219 0.7413308341143392 0.7094657919400187 0.6776007497656982 0.633552014995314 0.5557638238050608 0.4770384254920338 0.3880037488284911 0.2895970009372071 0.23805060918462986 0.21087160262417992 0.2014995313964386 0.19400187441424555 0.1874414245548266 0.18369259606373006 0.1790065604498594 0.17713214620431114 0.17525773195876293 0.17244611059044046 0.17057169634489222 0.17057169634489222 0.17057169634489222 0.17057169634489222 0.17057169634489222 0.1696344892221181 0.16869728209934398 0.16776007497656986,527.2000000000116 547.2000000000116 567.2000000000116 587.2000000000116 607.2000000000116 627.2000000000116 647.2000000000116 667.2000000000116 687.2000000000116 707.2000000000116 727.2000000000116 747.2000000000116 767.2000000000116 787.2000000000116 807.2000000000116 827.2000000000116 847.2000000000116 867.2000000000116 887.2000000000116 907.2000000000116 927.2000000000116 947.2000000000116 967.2000000000116 987.2000000000116 1007.2000000000116 1027.2000000000116 1047.2000000000116 1067.2000000000116 1087.2000000000116 1107.2000000000116 1127.2000000000114 1147.2000000000114 1167.2000000000114 1187.2000000000114 1207.2000000000114 1227.2000000000114 1247.2000000000114 1267.2000000000114 1287.2000000000114 1307.2000000000114 1327.2000000000114 1347.2000000000114 1367.2000000000114 1387.2000000000116 1407.2000000000116 1427.2000000000116 1447.2000000000116 1467.2000000000116 1487.2000000000116
cb_01,16.0,enc_trial,stim,response,Miami trip,1238.0000000003786,enc_trial,1.0,16.0,t_s_08_2,travel_shared,fold-a,hand lotion,1.0,competing,close,paired,t_s_08_2.jpg,,travel-b1,Iceland trip,Miami trip,sub-99,0.0,0.0,1.0,1.0,0.4855904404873477 0.4947282099343955 0.5277647610121837 0.5839971883786317 0.6838097469540768 0.7639409559512653 0.8307169634489223 0.8960871602624181 0.9291237113402062 0.9445876288659796 0.9516166822867854 0.9544283036551078 0.9551312089971884 0.9558341143392692 0.9565370196813496 0.9558341143392692 0.9558341143392692 0.9558341143392692 0.9558341143392692 0.9537253983130272 0.952319587628866 0.9445876288659796 0.934746954076851 0.9270149953139644 0.9171743205248359 0.9094423617619496 0.8996016869728211 0.8897610121836926 0.885543580131209 0.8820290534208061,0.8153701968134958 0.803186504217432 0.7656982193064668 0.711340206185567 0.5979381443298969 0.4976569821930647 0.407685098406748 0.3083411433926898 0.25210871602624185 0.2221180880974696 0.2014995313964386 0.1921274601686973 0.18275538894095605 0.17338331771321458 0.16401124648547327 0.1611996251171509 0.1611996251171509 0.15089034676663535 0.14151827553889407 0.13495782567947512 0.13120899718837864 0.12652296157450793 0.12277413308341145 0.12277413308341145 0.12464854732895968 0.1293345829428304 0.13683223992502347 0.14526710402999066 0.14901593252108716 0.15276476101218373,618.2000000000116 638.2000000000116 658.2000000000116 678.2000000000116 698.2000000000116 718.2000000000116 738.2000000000116 758.2000000000116 778.2000000000116 798.2000000000116 818.2000000000116 838.2000000000116 858.2000000000116 878.2000000000116 898.2000000000116 918.2000000000116 938.2000000000116 958.2000000000116 978.2000000000116 998.2000000000116 1018.2000000000116 1038.2000000000116 1058.2000000000116 1078.2000000000116 1098.2000000000116 1118.2000000000116 1138.2000000000114 1158.2000000000114 1178.2000000000114 1198.2000000000114
cb_01,17.0,enc_trial,stim,response,Iceland trip,1097.8999999988882,enc_trial,1.0,17.0,t_i_10_2,travel_Iceland,fold-b,trekking poles,1.0,unique,far,paired,t_i_10_2.jpg,Iceland,travel-b1,Iceland trip,Miami trip,sub-99,1.0,1.0,1.0,1.0,0.5010543580131209 0.4989456419868791 0.4834817244611059 0.4504451733833178 0.36890815370196817 0.28104498594189314 0.19458762886597936 0.12429709465791942 0.10391283973758204 0.08985473289597003 0.07860824742268044 0.07720243673851923 0.07509372071227742 0.07228209934395502 0.06876757263355204 0.06665885660731022 0.06595595126522964 0.06595595126522964 0.06665885660731022 0.07579662605435804 0.09618088097469543 0.10813027179006562 0.12218837863167765 0.13062324273664486 0.13343486410496722,0.7966260543580131 0.7853795688847235 0.7413308341143392 0.6794751640112464 0.5791940018744142 0.4864104967197751 0.3861293345829429 0.2980318650421743 0.2642924086223055 0.22961574507966265 0.1921274601686973 0.1790065604498594 0.1696344892221181 0.1565135895032802 0.14151827553889407 0.13589503280224935 0.13214620431115276 0.13120899718837864 0.13120899718837864 0.13402061855670094 0.14151827553889407 0.14432989690721654 0.1471415182755389 0.14901593252108716 0.14901593252108716,557.3999999999942 577.3999999999943 597.3999999999943 617.3999999999943 637.3999999999943 657.3999999999943 677.3999999999943 697.3999999999942 717.3999999999942 737.3999999999942 757.3999999999942 777.3999999999942 797.3999999999942 817.3999999999942 837.3999999999942 857.3999999999942 877.3999999999942 897.3999999999942 917.3999999999942 937.3999999999942 957.3999999999942 977.3999999999942 997.3999999999942 1017.3999999999942 1037.3999999999942
cb_01,18.0,enc_trial,stim,response,Iceland trip,1456.0000000003783,enc_trial,1.0,18.0,t_s_22_2,travel_shared,fold-a,belt,1.0,competing,close,paired,t_s_22_2.jpg,,travel-b1,Iceland trip,Miami trip,sub-99,1.0,1.0,1.0,1.0,0.5059746954076851 0.5059746954076851 0.5073805060918463 0.5137066541705717 0.5256560449859419 0.5425257731958762 0.5650187441424555 0.6057872539831303 0.6409325210871603 0.6648313027179007 0.6873242736644798 0.7063027179006559 0.7309044048734771 0.7491799437675727 0.7604264292408623 0.7660496719775071 0.7723758200562325 0.7787019681349578 0.7801077788191191 0.7751874414245549 0.7055998125585754 0.6114104967197751 0.5333880037488284 0.4876991565135895 0.4511480787253983 0.4216260543580132 0.3801546391752577 0.2986176194939081 0.2458997188378632 0.18474695407685104 0.08141986879100284 0.02799906279287725 0.013940955951265255 0.013940955951265255 0.008317713214620458 0.0019915651358950594 -0.0036316776007497393 -0.012769447047797537 -0.014175257731958737 -0.014878163074039337 -0.014878163074039337 -0.012769447047797537 0.0041002811621368585 0.02378163074039365 0.05049203373945645 0.061738519212746035 0.06665885660731022 0.07368791002811624 0.08282567947516402 0.08985473289597003 0.09196344892221182,0.8181818181818181 0.8153701968134958 0.8059981255857545 0.7816307403936271 0.7432052483598875 0.6982193064667291 0.6504217432052484 0.5716963448922212 0.5079662605435802 0.4639175257731959 0.4170571696344893 0.3823805060918463 0.3514526710402999 0.33177132146204313 0.31396438612933464 0.30084348641049674 0.28209934395501396 0.2633552014995314 0.25585754451733833 0.2483598875351453 0.22492970946579194 0.20712277413308344 0.19306466729147145 0.18462980318650424 0.17713214620431114 0.17244611059044046 0.1658856607310215 0.1471415182755389 0.13214620431115276 0.12183692596063732 0.1115276476101218 0.10965323336457357 0.10965323336457357 0.10965323336457357 0.11340206185567014 0.11808809746954076 0.12277413308341145 0.12839737582005628 0.1293345829428304 0.13027179006560452 0.13027179006560452 0.13683223992502347 0.15463917525773194 0.16401124648547327 0.1658856607310215 0.1658856607310215 0.1658856607310215 0.1649484536082474 0.16307403936269915 0.16213683223992506 0.16213683223992506,454.6000000000058 474.6000000000058 494.6000000000058 514.6000000000058 534.6000000000058 554.6000000000058 574.6000000000057 594.6000000000057 614.6000000000057 634.6000000000057 654.6000000000057 674.6000000000057 694.6000000000058 714.6000000000058 734.6000000000058 754.6000000000058 774.6000000000058 794.6000000000058 814.6000000000058 834.6000000000058 854.6000000000058 874.6000000000058 894.6000000000058 914.6000000000058 934.6000000000058 954.6000000000058 974.6000000000058 994.6000000000058 1014.6000000000058 1034.6000000000058 1054.6000000000058 1074.6000000000058 1094.6000000000058 1114.6000000000058 1134.6000000000058 1154.6000000000058 1174.6000000000058 1194.6000000000058 1214.6000000000058 1234.6000000000058 1254.6000000000058 1274.6000000000058 1294.6000000000058 1314.6000000000058 1334.6000000000058 1354.6000000000058 1374.6000000000058 1394.6000000000058 1414.6000000000058 1434.6000000000058 1454.6000000000058
cb_01,19.0,enc_trial,stim,response,Miami trip,1105.2999999988824,enc_trial,1.0,19.0,t_m_01_1,travel_Miami,fold-a,sandals,1.0,unique,close,paired,t_m_01_1.jpg,Miami,travel-b1,Iceland trip,Miami trip,sub-99,1.0,1.0,1.0,1.0,0.5073805060918463 0.5073805060918463 0.5073805060918463 0.5073805060918463 0.5073805060918463 0.5073805060918463 0.5073805060918463 0.5073805060918463 0.5073805060918463 0.5073805060918463 0.5073805060918463 0.5073805060918463 0.5073805060918463 0.5073805060918463 0.5073805060918463 0.5073805060918463 0.5073805060918463 0.5073805060918463 0.5073805060918463 0.5073805060918463 0.5059746954076851 0.5045688847235239 0.5010543580131209 0.4968369259606373 0.4891049671977507 0.4848875351452671 0.4820759137769447 0.4905107778819119 0.5249531396438613 0.6029756326148079 0.7709700093720713 0.9024133083411434 0.9712980318650424 0.9825445173383318 0.9832474226804124 0.9839503280224928 0.9825445173383318 0.9797328959700096 0.9776241799437676 0.9741096532333646 0.9684864104967198 0.9670805998125588 0.9642689784442362 0.9593486410496721 0.9459934395501406 0.9340440487347704 0.9242033739456421 0.9171743205248359 0.9150656044985942 0.9150656044985942 0.9143626991565136,0.802249297094658 0.802249297094658 0.802249297094658 0.802249297094658 0.802249297094658 0.802249297094658 0.802249297094658 0.802249297094658 0.802249297094658 0.802249297094658 0.802249297094658 0.802249297094658 0.802249297094658 0.802249297094658 0.802249297094658 0.802249297094658 0.802249297094658 0.802249297094658 0.7994376757263355 0.7975632614807873 0.7938144329896908 0.7863167760074976 0.7741330834114339 0.7600749765698219 0.7366447985004686 0.7179006560449859 0.7047797563261481 0.6663542642924086 0.6260543580131209 0.5754451733833177 0.4592314901593252 0.36457357075913777 0.31396438612933464 0.302717900656045 0.2999062792877226 0.29615745079662603 0.2867853795688847 0.2755388940955952 0.26522961574507964 0.25210871602624185 0.2314901593252109 0.22399250234301785 0.21743205248359887 0.21087160262417992 0.19493908153701967 0.18462980318650424 0.17619493908153705 0.17150890346766634 0.17150890346766634 0.17150890346766634 0.17150890346766634,84.70000000001164 104.70000000001164 124.70000000001164 144.7000000000116 164.7000000000116 184.70000000001164 204.70000000001164 224.70000000001164 244.70000000001164 264.70000000001164 284.70000000001164 304.70000000001164 324.70000000001164 344.7000000000116 364.7000000000117 384.7000000000117 404.7000000000117 424.7000000000117 444.7000000000117 464.7000000000117 484.7000000000117 504.7000000000117 524.7000000000116 544.7000000000116 564.7000000000116 584.7000000000116 604.7000000000116 624.7000000000116 644.7000000000116 664.7000000000116 684.7000000000116 704.7000000000116 724.7000000000116 744.7000000000116 764.7000000000116 784.7000000000116 804.7000000000116 824.7000000000116 844.7000000000116 864.7000000000116 884.7000000000116 904.7000000000116 924.7000000000116 944.7000000000116 964.7000000000116 984.7000000000116 1004.7000000000116 1024.7000000000116 1044.7000000000116 1064.7000000000116 1084.7000000000116
cb_01,20.0,enc_trial,stim,response,Miami trip,928.8999999988882,enc_trial,1.0,20.0,t_m_19_1,travel_Miami,fold-b,surfboard,1.0,unique,far,paired,t_m_19_1.jpg,Miami,travel-b1,Iceland trip,Miami trip,sub-99,1.0,1.0,1.0,1.0,0.4933223992502343 0.4954311152764761 0.5101921274601687 0.5495548266166823 0.6240627928772259 0.6760777881911902 0.7203608247422681 0.7505857544517339 0.7576148078725399 0.7555060918462981 0.7484770384254921 0.7477741330834115 0.7505857544517339 0.7562089971883788 0.7660496719775071 0.7758903467666355 0.7864339268978445 0.8004920337394564 0.8110356138706655 0.8250937207122775 0.8440721649484537 0.8560215557638239 0.8644564198687911 0.8700796626054359 0.871485473289597,0.8069353327085286 0.8041237113402062 0.7900656044985942 0.7516401124648547 0.6776007497656982 0.6138706654170571 0.5426429240862229 0.4798500468603562 0.4461105904404874 0.4161199625117151 0.38050609184629797 0.3580131208997188 0.3336457357075914 0.3074039362699157 0.26897844423617623 0.24742268041237114 0.2361761949390815 0.22492970946579194 0.21274601686972816 0.18931583880037486 0.1471415182755389 0.13120899718837864 0.12464854732895968 0.12277413308341145 0.12277413308341145,418.1000000000058 438.1000000000058 458.1000000000058 478.1000000000058 498.1000000000058 518.1000000000058 538.1000000000058 558.1000000000058 578.1000000000057 598.1000000000057 618.1000000000057 638.1000000000057 658.1000000000057 678.1000000000057 698.1000000000058 718.1000000000058 738.1000000000058 758.1000000000058 778.1000000000058 798.1000000000058 818.1000000000058 838.1000000000058 858.1000000000058 878.1000000000058 898.1000000000058
cb_01,21.0,enc_trial,stim,response,Miami trip,1282.5999999988708,enc_trial,1.0,21.0,t_s_02_1,travel_shared,fold-b,water bottle,1.0,competing,far,paired,t_s_02_1.jpg,,travel-b1,Iceland trip,Miami trip,sub-99,0.0,0.0,1.0,1.0,0.4982427366447985 0.4989456419868791 0.5031630740393627 0.5073805060918463 0.5101921274601687 0.5115979381443299 0.5080834114339269 0.5087863167760075 0.5179240862230553 0.5516635426429239 0.6317947516401125 0.6873242736644798 0.7189550140581068 0.7323102155576383 0.7365276476101219 0.7428537956888474 0.7548031865042175 0.7744845360824743 0.7843252108716027 0.7913542642924087 0.8040065604498595 0.8131443298969073 0.8201733833177133 0.8250937207122775 0.8314198687910028 0.8377460168697283 0.8426663542642925 0.8440721649484537 0.8447750702905342 0.8447750702905342 0.8447750702905342 0.8447750702905342,0.8050609184629803 0.7985004686035614 0.7769447047797563 0.7582005623242737 0.731958762886598 0.6813495782567948 0.6232427366447986 0.5613870665417058 0.507029053420806 0.4170571696344893 0.302717900656045 0.2502343017806935 0.2277413308341143 0.2221180880974696 0.21836925960637305 0.21274601686972816 0.1996251171508904 0.18088097469540765 0.17057169634489222 0.16213683223992506 0.14901593252108716 0.14151827553889407 0.13964386129334586 0.13589503280224935 0.13402061855670094 0.13308341143392688 0.13308341143392688 0.13402061855670094 0.13402061855670094 0.13402061855670094 0.13402061855670094 0.13495782567947512,515.0999999999766 535.0999999999766 555.0999999999766 575.0999999999766 595.0999999999766 615.0999999999766 635.0999999999766 655.0999999999766 675.0999999999766 695.0999999999766 715.0999999999766 735.0999999999766 755.0999999999766 775.0999999999766 795.0999999999766 815.0999999999766 835.0999999999766 855.0999999999766 875.0999999999766 895.0999999999766 915.0999999999766 935.0999999999766 955.0999999999766 975.0999999999766 995.0999999999766 1015.0999999999766 1035.0999999999767 1055.0999999999767 1075.0999999999767 1095.0999999999767 1115.0999999999767 1135.0999999999767
cb_01,22.0,enc_trial,stim,response,Miami trip,1168.5000000003786,enc_trial,1.0,22.0,t_s_21_2,travel_shared,fold-b,umbrella,1.0,competing,far,paired,t_s_21_2.jpg,,travel-b1,Iceland trip,Miami trip,sub-99,0.0,0.0,1.0,1.0,0.5066776007497656 0.5073805060918463 0.5151124648547329 0.5284676663542643 0.5910262417994376 0.6795923149015932 0.7843252108716027 0.9192830365510778 0.9790299906279288 1.0043345829428303 1.0078491096532334 1.006443298969072 1.001522961574508 0.9951968134957826 0.9825445173383318 0.9741096532333646 0.9649718837863168 0.9544283036551078 0.9481021555763824 0.9417760074976568 0.931232427366448 0.9227975632614808 0.9157685098406748 0.9108481724461106 0.9080365510777882 0.9073336457357076 0.9066307403936272 0.905224929709466 0.905224929709466 0.905224929709466,0.803186504217432 0.7985004686035614 0.7741330834114339 0.739456419868791 0.6579194001874414 0.5763823805060919 0.4826616682286785 0.35988753514526706 0.2905342080599812 0.2502343017806935 0.2352389878163073 0.2258669165885661 0.21836925960637305 0.20899718837863168 0.19587628865979376 0.18837863167760072 0.1790065604498594 0.16776007497656986 0.16401124648547327 0.1602624179943768 0.1565135895032802 0.1565135895032802 0.1565135895032802 0.1565135895032802 0.1565135895032802 0.1565135895032802 0.15745079662605432 0.15838800374882844 0.15838800374882844 0.15932521087160267,515.1000000000058 535.1000000000058 555.1000000000058 575.1000000000057 595.1000000000057 615.1000000000057 635.1000000000057 655.1000000000057 675.1000000000057 695.1000000000058 715.1000000000058 735.1000000000058 755.1000000000058 775.1000000000058 795.1000000000058 815.1000000000058 835.1000000000058 855.1000000000058 875.1000000000058 895.1000000000058 915.1000000000058 935.1000000000058 955.1000000000058 975.1000000000058 995.1000000000058 1015.1000000000058 1035.1000000000058 1055.1000000000058 1075.1000000000058 1095.1000000000058
cb_01,23.0,enc_trial,stim,response,Iceland trip,1354.5999999992493,enc_trial,1.0,23.0,t_s_12_2,travel_shared,fold-b,clear toiletry bag,1.0,competing,far,paired,t_s_12_2.jpg,,travel-b1,Iceland trip,Miami trip,sub-99,1.0,1.0,0.0,0.0,0.4961340206185567 0.4954311152764761 0.4947282099343955 0.4947282099343955 0.4940253045923149 0.4940253045923149 0.4933223992502343 0.4869962511715089 0.4785613870665417 0.4638003748828491 0.4272492970946579 0.3956185567010309 0.3667994376757264 0.3400890346766636 0.3070524835988754 0.28174789128397376 0.2669868791002812 0.26136363636363635 0.258552014995314 0.2564432989690722 0.258552014995314 0.2726101218369261 0.30845829428303656 0.4033505154639176 0.5523664479850047 0.6043814432989689 0.6142221180880975 0.6170337394564198 0.6170337394564198 0.5861059044048734 0.4152999062792877 0.2536316776007498 0.13694939081537022 0.08985473289597003 0.07649953139643864 0.06455014058106844 0.046977507029053435 0.03291940018744145 0.02659325210871605 0.023078725398313054 0.019564198687910053 0.018861293345829453 0.020267104029990653 0.03221649484536085 0.05752108716026244 0.07298500468603564 0.08423149015932524 0.09969540768509842 0.10953608247422683 0.11867385192127462 0.12500000000000006,0.8134957825679475 0.8125585754451734 0.8125585754451734 0.8125585754451734 0.8125585754451734 0.8116213683223993 0.8069353327085286 0.7863167760074976 0.7656982193064668 0.7413308341143392 0.6935332708528585 0.6513589503280225 0.6176194939081536 0.5857544517338331 0.5379568884723525 0.4976569821930647 0.4667291471415183 0.4432989690721649 0.43486410496719774 0.4283036551077788 0.4058106841611996 0.3833177132146204 0.3514526710402999 0.3055295220243673 0.2492970946579193 0.2324273664479849 0.2286785379568884 0.2258669165885661 0.2258669165885661 0.22118088097469546 0.2314901593252109 0.25210871602624185 0.2671040299906279 0.26897844423617623 0.26522961574507964 0.25585754451733833 0.238987816307404 0.2221180880974696 0.21555763823805066 0.2099343955014058 0.2052483598875351 0.2024367385192128 0.19868791002811625 0.1968134957825679 0.19775070290534214 0.19775070290534214 0.19775070290534214 0.1921274601686973 0.1855670103092784 0.17525773195876293 0.1696344892221181,303.0 323.0 343.0 363.0 383.0 403.0 423.0 443.0 463.0 483.0 503.0 523.0 543.0 563.0 583.0 603.0 623.0 643.0 663.0 683.0 703.0 723.0 743.0 763.0 783.0 803.0 823.0 843.0 863.0 883.0 903.0 923.0 943.0 963.0 983.0 1003.0 1023.0 1043.0 1063.0 1083.0 1103.0 1123.0 1143.0 1163.0 1183.0 1203.0 1223.0 1243.0 1263.0 1283.0 1303.0
cb_01,24.0,enc_trial,stim,response,Miami trip,1037.7999999999884,enc_trial,1.0,24.0,t_s_06_1,travel_shared,fold-b,luggage,1.0,competing,far,paired,t_s_06_1.jpg,,travel-b1,Iceland trip,Miami trip,sub-99,1.0,1.0,0.0,0.0,0.5038659793814433 0.5101921274601687 0.5326850984067479 0.5600984067478912 0.6029756326148079 0.6500702905342081 0.6971649484536082 0.7428537956888474 0.7576148078725399 0.7639409559512653 0.7723758200562325 0.7878397375820057 0.7997891283973759 0.8096298031865042 0.8229850046860356 0.8321227741330834 0.8391518275538895 0.8461808809746955 0.8496954076850984 0.8518041237113403 0.853912839737582 0.8560215557638239 0.8560215557638239 0.8560215557638239 0.8560215557638239 0.8567244611059045,0.8238050609184631 0.8200562324273665 0.8013120899718837 0.7722586691658857 0.7122774133083412 0.6476101218369259 0.5801312089971884 0.5107778819119025 0.4864104967197751 0.4723523898781631 0.4536082474226805 0.4208059981255857 0.3945641986879101 0.3692596063730085 0.3298969072164949 0.2970946579194001 0.2642924086223055 0.22024367385192128 0.1968134957825679 0.1855670103092784 0.1780693533270853 0.17338331771321458 0.1696344892221181 0.1658856607310215 0.16401124648547327 0.16401124648547327,405.8999999999942 425.8999999999942 445.8999999999942 465.8999999999942 485.8999999999942 505.8999999999942 525.8999999999942 545.8999999999942 565.8999999999943 585.8999999999943 605.8999999999943 625.8999999999943 645.8999999999943 665.8999999999943 685.8999999999943 705.8999999999942 725.8999999999942 745.8999999999942 765.8999999999942 785.8999999999942 805.8999999999942 825.8999999999942 845.8999999999942 865.8999999999942 885.8999999999942 905.8999999999942
cb_01,25.0,enc_trial,stim,response,Iceland trip,1069.0999999996277,enc_trial,1.0,25.0,t_s_18_1,travel_shared,fold-a,first aid kit,1.0,competing,close,paired,t_s_18_1.jpg,,travel-b1,Iceland trip,Miami trip,sub-99,0.0,0.0,0.0,1.0,0.4968369259606373 0.4961340206185567 0.4947282099343955 0.4947282099343955 0.4947282099343955 0.4947282099343955 0.4947282099343955 0.4947282099343955 0.4947282099343955 0.4947282099343955 0.4947282099343955 0.4947282099343955 0.4947282099343955 0.4947282099343955 0.4947282099343955 0.4947282099343955 0.4947282099343955 0.4933223992502343 0.4919165885660731 0.4862933458294283 0.4680178069353328 0.4448219306466729 0.4117853795688847 0.3759372071227741 0.34219775070290537 0.3211105904404873 0.2979147141518276 0.25503748828491096 0.22129803186504216 0.2009137769447048 0.1840440487347704 0.1735004686035614 0.15803655107778822 0.1432755388940956 0.13484067478912842 0.13343486410496722 0.13132614807872542 0.1299203373945642 0.12851452671040306 0.1278116213683224 0.1278116213683224 0.1299203373945642 0.13132614807872542 0.13343486410496722,0.8088097469540768 0.8088097469540768 0.8078725398313027 0.8078725398313027 0.8078725398313027 0.8078725398313027 0.8078725398313027 0.8078725398313027 0.8078725398313027 0.8078725398313027 0.8078725398313027 0.8078725398313027 0.8078725398313027 0.8078725398313027 0.8078725398313027 0.803186504217432 0.7900656044985942 0.7647610121836926 0.7375820056232427 0.7019681349578257 0.6401124648547329 0.5923149015932521 0.5388940955951265 0.4901593252108716 0.4470477975632615 0.4189315838800375 0.3926897844423618 0.34957825679475163 0.31396438612933464 0.29147141518275543 0.2755388940955952 0.2633552014995314 0.2483598875351453 0.2314901593252109 0.22118088097469546 0.21836925960637305 0.2146204311152765 0.20899718837863168 0.20712277413308344 0.20712277413308344 0.2052483598875351 0.19587628865979376 0.18837863167760072 0.18462980318650424,163.60000000000582 183.60000000000585 203.60000000000585 223.60000000000585 243.60000000000585 263.6000000000058 283.6000000000058 303.6000000000058 323.6000000000058 343.6000000000058 363.6000000000058 383.6000000000058 403.6000000000058 423.6000000000058 443.6000000000058 463.6000000000058 483.6000000000058 503.6000000000058 523.6000000000058 543.6000000000058 563.6000000000057 583.6000000000057 603.6000000000057 623.6000000000057 643.6000000000057 663.6000000000057 683.6000000000057 703.6000000000058 723.6000000000058 743.6000000000058 763.6000000000058 783.6000000000058 803.6000000000058 823.6000000000058 843.6000000000058 863.6000000000058 883.6000000000058 903.6000000000058 923.6000000000058 943.6000000000058 963.6000000000058 983.6000000000058 1003.6000000000058 1023.6000000000058
cb_01,26.0,enc_trial,stim,response,Miami trip,1144.4999999992433,enc_trial,1.0,26.0,t_m_01_2,travel_Miami,fold-a,sandals,1.0,unique,close,paired,t_m_01_2.jpg,Miami,travel-b1,Iceland trip,Miami trip,sub-99,1.0,1.0,1.0,1.0,0.5263589503280225 0.5256560449859419 0.5249531396438613 0.5242502343017806 0.5242502343017806 0.5242502343017806 0.5242502343017806 0.5228444236176195 0.5228444236176195 0.5228444236176195 0.5228444236176195 0.5228444236176195 0.5228444236176195 0.5228444236176195 0.5228444236176195 0.5228444236176195 0.5228444236176195 0.5228444236176195 0.5228444236176195 0.5228444236176195 0.5228444236176195 0.5228444236176195 0.520032802249297 0.5052717900656045 0.4750468603561387 0.4434161199625117 0.39702436738519215 0.33024835988753515 0.29932052483598875 0.2852624179943768 0.2740159325210872 0.2712043111527648 0.28807403936269915 0.3864807872539832 0.6578022492970946 0.8869493908153703 1.0282333645735708 1.0668931583880037 1.0668931583880037 1.0633786316776008 1.0422914714151827 1.0176897844423618 0.9923851921274602 0.9783270852858482 0.9684864104967198 0.9628631677600752 0.9551312089971884 0.940370196813496 0.9284208059981256 0.9178772258669168 0.9094423617619496 0.9080365510777882,0.8256794751640113 0.8256794751640113 0.8256794751640113 0.8256794751640113 0.8256794751640113 0.8256794751640113 0.8256794751640113 0.8256794751640113 0.8256794751640113 0.8256794751640113 0.8256794751640113 0.8256794751640113 0.8256794751640113 0.8256794751640113 0.8256794751640113 0.8256794751640113 0.8256794751640113 0.8256794751640113 0.8256794751640113 0.8256794751640113 0.8256794751640113 0.8256794751640113 0.8153701968134958 0.7825679475164011 0.7207122774133083 0.6607310215557638 0.5857544517338331 0.4882849109653234 0.4451733833177132 0.41799437675726336 0.3964386129334583 0.3842549203373946 0.3626991565135895 0.3242736644798501 0.25210871602624185 0.18275538894095605 0.13027179006560452 0.11340206185567014 0.11340206185567014 0.11340206185567014 0.10871602624179943 0.10871602624179943 0.11246485473289602 0.11808809746954076 0.12464854732895968 0.1293345829428304 0.13495782567947512 0.1433926897844423 0.15276476101218373 0.15932521087160267 0.16401124648547327 0.1658856607310215,72.69999999998255 92.69999999998257 112.69999999998257 132.69999999998254 152.69999999998254 172.69999999998254 192.69999999998254 212.69999999998254 232.69999999998254 252.69999999998254 272.69999999998254 292.6999999999825 312.6999999999825 332.6999999999825 352.69999999998254 372.69999999998254 392.69999999998254 412.69999999998254 432.69999999998254 452.69999999998254 472.69999999998254 492.69999999998254 512.6999999999825 532.6999999999825 552.6999999999825 572.6999999999825 592.6999999999825 612.6999999999825 632.6999999999825 652.6999999999825 672.6999999999825 692.6999999999824 712.6999999999824 732.6999999999824 752.6999999999824 772.6999999999824 792.6999999999824 812.6999999999824 832.6999999999824 852.6999999999824 872.6999999999824 892.6999999999824 912.6999999999823 932.6999999999823 952.6999999999823 972.6999999999823 992.6999999999823 1012.6999999999823 1032.6999999999823 1052.6999999999823 1072.6999999999823 1092.6999999999823
cb_01,27.0,enc_trial,stim,response,Miami trip,1223.3000000003667,enc_trial,1.0,27.0,t_i_19_2,travel_Iceland,fold-b,rope,1.0,unique,far,paired,t_i_19_2.jpg,Iceland,travel-b1,Iceland trip,Miami trip,sub-99,0.0,0.0,1.0,0.0,0.4975398313027179 0.4975398313027179 0.4975398313027179 0.4968369259606373 0.4968369259606373 0.4968369259606373 0.4968369259606373 0.4961340206185567 0.4961340206185567 0.4961340206185567 0.4961340206185567 0.4961340206185567 0.4961340206185567 0.4961340206185567 0.4961340206185567 0.4961340206185567 0.4961340206185567 0.4961340206185567 0.4947282099343955 0.4919165885660731 0.4891049671977507 0.4855904404873477 0.4841846298031865 0.4827788191190253 0.4827788191190253 0.4834817244611059 0.4884020618556701 0.5073805060918463 0.5263589503280225 0.5579896907216495 0.6057872539831303 0.6367150890346767 0.6662371134020618 0.6999765698219307 0.7365276476101219 0.751991565135895 0.7646438612933459 0.7843252108716027 0.7941658856607311 0.7983833177132147 0.8011949390815369 0.8033036551077789 0.8061152764761013 0.8089268978444237 0.8096298031865042 0.8096298031865042 0.8103327085285849 0.8187675726335519 0.8250937207122775 0.8307169634489223 0.8342314901593253 0.8342314901593253 0.8356373008434864 0.8398547328959701 0.8447750702905342 0.8447750702905342 0.8461808809746955 0.8461808809746955 0.8461808809746955 0.8468837863167761 0.8475866916588567,0.8153701968134958 0.8153701968134958 0.8153701968134958 0.8153701968134958 0.8153701968134958 0.8153701968134958 0.8153701968134958 0.8163074039362699 0.8163074039362699 0.8163074039362699 0.8163074039362699 0.8163074039362699 0.8163074039362699 0.8163074039362699 0.8163074039362699 0.8163074039362699 0.8163074039362699 0.8163074039362699 0.8163074039362699 0.8200562324273665 0.8200562324273665 0.8172446110590441 0.8106841611996252 0.8069353327085286 0.8069353327085286 0.7947516401124648 0.7432052483598875 0.6504217432052484 0.5970009372071228 0.5238987816307403 0.4479850046860357 0.4114339268978444 0.3758200562324273 0.3345829428303655 0.28772258669165884 0.2624179943767573 0.2399250234301781 0.20899718837863168 0.19400187441424555 0.1874414245548266 0.18462980318650424 0.1790065604498594 0.1743205248359887 0.17150890346766634 0.17057169634489222 0.17057169634489222 0.17057169634489222 0.1649484536082474 0.16213683223992506 0.1602624179943768 0.1602624179943768 0.1602624179943768 0.15932521087160267 0.15557638238050608 0.15370196813495784 0.15276476101218373 0.15276476101218373 0.15276476101218373 0.15276476101218373 0.15276476101218373 0.15276476101218373,12.100000000005819 32.10000000000582 52.10000000000582 72.1000000000058 92.10000000000582 112.10000000000582 132.10000000000582 152.10000000000582 172.1000000000058 192.10000000000585 212.10000000000585 232.10000000000585 252.10000000000585 272.1000000000058 292.1000000000058 312.1000000000058 332.1000000000058 352.1000000000058 372.1000000000058 392.1000000000058 412.1000000000058 432.1000000000058 452.1000000000058 472.1000000000058 492.1000000000058 512.1000000000058 532.1000000000058 552.1000000000058 572.1000000000057 592.1000000000057 612.1000000000057 632.1000000000057 652.1000000000057 672.1000000000057 692.1000000000058 712.1000000000058 732.1000000000058 752.1000000000058 772.1000000000058 792.1000000000058 812.1000000000058 832.1000000000058 852.1000000000058 872.1000000000058 892.1000000000058 912.1000000000058 932.1000000000058 952.1000000000058 972.1000000000058 992.1000000000058 1012.1000000000058 1032.1000000000058 1052.1000000000058 1072.1000000000058 1092.1000000000058 1112.1000000000058 1132.1000000000058 1152.1000000000058 1172.1000000000058 1192.1000000000058 1212.1000000000058
cb_01,28.0,enc_trial,stim,response,Miami trip,1417.9000000000233,enc_trial,1.0,28.0,t_s_13_1,travel_shared,fold-c-single,contact lens case,1.0,competing,,single,t_s_13_1.jpg,,travel-b1,Iceland trip,Miami trip,sub-99,1.0,,0.0,,0.5017572633552015 0.5017572633552015 0.502460168697282 0.5045688847235239 0.5087863167760075 0.5108950328022493 0.5137066541705717 0.5214386129334583 0.5298734770384255 0.5425257731958762 0.5622071227741331 0.5790768509840675 0.5959465791940018 0.6156279287722587 0.6388238050609184 0.6592080599812559 0.6845126522961574 0.7168462980318651 0.7273898781630741 0.7372305529522025 0.7505857544517339 0.7618322399250235 0.7730787253983131 0.7857310215557639 0.7948687910028117 0.8011949390815369 0.8068181818181819 0.8124414245548267 0.8152530459231491 0.8166588566073103 0.8208762886597939 0.8222820993439551 0.8243908153701969 0.8250937207122775 0.8264995313964387 0.8286082474226805 0.8300140581068417 0.8307169634489223,0.8341143392689785 0.8313027179006559 0.8256794751640113 0.8153701968134958 0.7994376757263355 0.7928772258669166 0.7778819119025304 0.7488284910965324 0.7207122774133083 0.6841611996251171 0.6326148078725398 0.5951265229615745 0.5595126522961574 0.528584817244611 0.4882849109653234 0.4564198687910028 0.4283036551077788 0.39550140581068416 0.3786316776007498 0.3533270852858482 0.31115276476101217 0.2746016869728209 0.2408622305529522 0.2099343955014058 0.18275538894095605 0.16869728209934398 0.15932521087160267 0.15089034676663535 0.14901593252108716 0.1471415182755389 0.14432989690721654 0.1424554826616682 0.14151827553889407 0.14151827553889407 0.14151827553889407 0.14151827553889407 0.14151827553889407 0.14151827553889407,672.6000000000057 692.6000000000058 712.6000000000058 732.6000000000058 752.6000000000058 772.6000000000058 792.6000000000058 812.6000000000058 832.6000000000058 852.6000000000058 872.6000000000058 892.6000000000058 912.6000000000056 932.6000000000056 952.6000000000056 972.6000000000056 992.6000000000056 1012.6000000000056 1032.6000000000058 1052.6000000000058 1072.6000000000058 1092.6000000000058 1112.6000000000058 1132.6000000000058 1152.6000000000058 1172.6000000000058 1192.6000000000058 1212.6000000000058 1232.6000000000058 1252.6000000000058 1272.6000000000058 1292.6000000000058 1312.6000000000058 1332.6000000000058 1352.6000000000058 1372.6000000000058 1392.6000000000058 1412.6000000000058
cb_01,29.0,enc_trial,stim,response,Iceland trip,1493.6000000003842,enc_trial,1.0,29.0,t_i_15_1,travel_Iceland,fold-a,compass,1.0,unique,close,paired,t_i_15_1.jpg,Iceland,travel-b1,Iceland trip,Miami trip,sub-99,1.0,1.0,1.0,1.0,0.5087863167760075 0.5052717900656045 0.4961340206185567 0.4834817244611059 0.4715323336457357 0.4673149015932521 0.4673149015932521 0.4806701030927835 0.5031630740393627 0.5340909090909091 0.5917291471415183 0.6507731958762887 0.7098172446110591 0.7491799437675727 0.7885426429240863 0.8117385192127461 0.8272024367385192 0.8391518275538895 0.8398547328959701 0.8040065604498595 0.6114104967197751 0.363987816307404 0.11375351452671045 -0.014175257731958737 -0.04791471415182754 -0.04791471415182754 -0.04791471415182754 -0.04791471415182754 -0.04791471415182754 -0.046508903467666333 -0.03666822867853793 -0.03245079662605433 -0.02471883786316773 -0.007146204311152738 0.02659325210871605 0.046977507029053435 0.060332708528584834 0.08071696344892224 0.08985473289597003,0.7863167760074976 0.7778819119025304 0.7563261480787253 0.7282099343955014 0.6869728209934396 0.6607310215557638 0.6344892221180881 0.5820056232427366 0.5304592314901593 0.4807872539831303 0.4189315838800375 0.3617619493908154 0.3064667291471416 0.26054358013120904 0.20337394564198685 0.1658856607310215 0.1433926897844423 0.12183692596063732 0.11433926897844425 0.08997188378631682 0.0581068416119962 0.06091846298031866 0.08903467666354259 0.10402999062792873 0.10777881911902533 0.10777881911902533 0.10777881911902533 0.10777881911902533 0.10777881911902533 0.10871602624179943 0.11059044048734767 0.1115276476101218 0.1115276476101218 0.11246485473289602 0.11715089034676662 0.11902530459231485 0.11902530459231485 0.11902530459231485 0.11902530459231485,660.6000000000057 680.6000000000057 700.6000000000058 720.6000000000058 740.6000000000058 760.6000000000058 780.6000000000058 800.6000000000058 820.6000000000058 840.6000000000058 860.6000000000058 880.6000000000058 900.6000000000058 920.6000000000056 940.6000000000056 960.6000000000056 980.6000000000056 1000.6000000000056 1020.6000000000056 1040.6000000000058 1060.6000000000058 1080.6000000000058 1100.6000000000058 1120.6000000000058 1140.6000000000058 1160.6000000000058 1180.6000000000058 1200.6000000000058 1220.6000000000058 1240.6000000000058 1260.6000000000058 1280.6000000000058 1300.6000000000058 1320.6000000000058 1340.6000000000058 1360.6000000000058 1380.6000000000058 1400.6000000000058 1420.6000000000058
cb_01,30.0,enc_trial,stim,response,Iceland trip,1478.0999999988708,enc_trial,1.0,30.0,t_s_15_1,travel_shared,fold-c-single,luggage tag,1.0,competing,,single,t_s_15_1.jpg,,travel-b1,Iceland trip,Miami trip,sub-99,1.0,,1.0,,0.5017572633552015 0.5017572633552015 0.5017572633552015 0.5017572633552015 0.5017572633552015 0.5017572633552015 0.5017572633552015 0.5017572633552015 0.5017572633552015 0.5017572633552015 0.5017572633552015 0.5017572633552015 0.5017572633552015 0.5017572633552015 0.5017572633552015 0.5017572633552015 0.5017572633552015 0.5017572633552015 0.5031630740393627 0.5059746954076851 0.5101921274601687 0.5137066541705717 0.5130037488284911 0.5101921274601687 0.5080834114339269 0.5073805060918463 0.5059746954076851 0.5031630740393627 0.4996485473289597 0.4933223992502343 0.4848875351452671 0.4778584817244611 0.4645032802249297 0.4356841611996251 0.3492268041237113 0.2697985004686036 0.216377694470478 0.181232427366448 0.16576850984067482 0.1545220243673852 0.13624648547328966 0.12218837863167765 0.11234770384254923 0.10672446110590443 0.10250702905342082 0.09618088097469543 0.08563730084348642 0.08071696344892224 0.08071696344892224 0.08071696344892224 0.07931115276476103 0.07790534208059982 0.07720243673851923 0.07860824742268044 0.08141986879100284 0.08493439550140583 0.08704311152764763 0.08915182755388944 0.08915182755388944 0.08915182755388944 0.08915182755388944 0.08844892221180882 0.08915182755388944 0.08915182755388944 0.08915182755388944 0.08985473289597003,0.7985004686035614 0.7985004686035614 0.7985004686035614 0.7985004686035614 0.7985004686035614 0.7985004686035614 0.7985004686035614 0.7985004686035614 0.7985004686035614 0.7985004686035614 0.7985004686035614 0.7985004686035614 0.7985004686035614 0.7985004686035614 0.7985004686035614 0.7985004686035614 0.7985004686035614 0.7985004686035614 0.795688847235239 0.7844423617619494 0.7628865979381443 0.7272727272727273 0.7038425492033741 0.6813495782567948 0.6597938144329897 0.6251171508903468 0.5876288659793815 0.5388940955951265 0.5014058106841612 0.4732895970009372 0.4498594189315839 0.4329896907216495 0.4123711340206185 0.38706654170571697 0.34582942830365515 0.3177132146204311 0.30084348641049674 0.2867853795688847 0.2774133083411434 0.2680412371134021 0.25210871602624185 0.2408622305529522 0.2324273664479849 0.2286785379568884 0.22399250234301785 0.2193064667291471 0.21087160262417992 0.2052483598875351 0.2052483598875351 0.2052483598875351 0.2024367385192128 0.19775070290534214 0.19587628865979376 0.19493908153701967 0.1874414245548266 0.17713214620431114 0.1658856607310215 0.15463917525773194 0.1518275538894096 0.14901593252108716 0.13964386129334586 0.13214620431115276 0.12839737582005628 0.12839737582005628 0.12839737582005628 0.12839737582005628,187.79999999998842 207.79999999998842 227.79999999998842 247.79999999998842 267.7999999999884 287.79999999998836 307.79999999998836 327.79999999998836 347.7999999999884 367.7999999999884 387.7999999999884 407.7999999999884 427.7999999999884 447.7999999999884 467.7999999999884 487.7999999999884 507.7999999999884 527.7999999999884 547.7999999999884 567.7999999999884 587.7999999999884 607.7999999999884 627.7999999999884 647.7999999999884 667.7999999999884 687.7999999999884 707.7999999999884 727.7999999999884 747.7999999999884 767.7999999999884 787.7999999999884 807.7999999999884 827.7999999999884 847.7999999999884 867.7999999999884 887.7999999999884 907.7999999999884 927.7999999999884 947.7999999999884 967.7999999999884 987.7999999999884 1007.7999999999884 1027.7999999999884 1047.7999999999884 1067.7999999999884 1087.7999999999884 1107.7999999999884 1127.7999999999886 1147.7999999999886 1167.7999999999886 1187.7999999999886 1207.7999999999886 1227.7999999999886 1247.7999999999886 1267.7999999999886 1287.7999999999886 1307.7999999999886 1327.7999999999886 1347.7999999999886 1367.7999999999886 1387.7999999999884 1407.7999999999884 1427.7999999999884 1447.7999999999884 1467.7999999999884 1487.7999999999884
cb_01,31.0,enc_trial,stim,response,Iceland trip,1304.6999999996333,enc_trial,1.0,31.0,t_m_18_2,travel_Miami,fold-b,waterproof tote,1.0,unique,far,paired,t_m_18_2.jpg,Miami,travel-b1,Iceland trip,Miami trip,sub-99,1.0,1.0,1.0,0.0,0.5137066541705717 0.5144095595126523 0.5144095595126523 0.5144095595126523 0.5144095595126523 0.5144095595126523 0.5144095595126523 0.5151124648547329 0.5158153701968134 0.5158153701968134 0.5158153701968134 0.5158153701968134 0.5158153701968134 0.5158153701968134 0.5158153701968134 0.5158153701968134 0.5158153701968134 0.5144095595126523 0.5130037488284911 0.5108950328022493 0.5087863167760075 0.5080834114339269 0.5073805060918463 0.5059746954076851 0.5017572633552015 0.4975398313027179 0.4968369259606373 0.4947282099343955 0.4926194939081537 0.4778584817244611 0.4490393626991565 0.3949156513589504 0.3625820056232427 0.3436035613870665 0.3295454545454545 0.31970477975632616 0.3098641049671977 0.2986176194939081 0.29299437675726336 0.2852624179943768 0.26628397375820057 0.2416822867853796 0.2170805998125586 0.1959934395501406 0.1826382380506092 0.1798266166822868 0.1756091846298032 0.1573336457357076 0.1453842549203374 0.14046391752577322 0.13905810684161202 0.13835520149953145 0.1376522961574508,0.8331771321462043 0.8331771321462043 0.8322399250234301 0.8322399250234301 0.8313027179006559 0.8313027179006559 0.8313027179006559 0.8303655107778819 0.8303655107778819 0.8303655107778819 0.8294283036551078 0.8294283036551078 0.8294283036551078 0.8284910965323337 0.8284910965323337 0.8284910965323337 0.8266166822867854 0.8163074039362699 0.8078725398313027 0.795688847235239 0.7806935332708529 0.7741330834114339 0.7703842549203375 0.7647610121836926 0.753514526710403 0.7441424554826617 0.7385192127460172 0.7300843486410497 0.7188378631677601 0.6879100281162136 0.6344892221180881 0.5520149953139644 0.5126522961574508 0.4826616682286785 0.44892221180880976 0.4283036551077788 0.4095595126522962 0.3898781630740393 0.3786316776007498 0.3626991565135895 0.33177132146204313 0.2952202436738519 0.2586691658856607 0.2324273664479849 0.21836925960637305 0.2146204311152765 0.21087160262417992 0.19493908153701967 0.18275538894095605 0.1780693533270853 0.17619493908153705 0.17338331771321458 0.17244611059044046,224.20000000001164 244.20000000001164 264.20000000001164 284.20000000001164 304.20000000001164 324.20000000001164 344.2000000000116 364.2000000000117 384.2000000000117 404.2000000000117 424.2000000000117 444.2000000000117 464.2000000000117 484.2000000000117 504.2000000000117 524.2000000000116 544.2000000000116 564.2000000000116 584.2000000000116 604.2000000000116 624.2000000000116 644.2000000000116 664.2000000000116 684.2000000000116 704.2000000000116 724.2000000000116 744.2000000000116 764.2000000000116 784.2000000000116 804.2000000000116 824.2000000000116 844.2000000000116 864.2000000000116 884.2000000000116 904.2000000000116 924.2000000000116 944.2000000000116 964.2000000000116 984.2000000000116 1004.2000000000116 1024.2000000000116 1044.2000000000116 1064.2000000000116 1084.2000000000116 1104.2000000000116 1124.2000000000116 1144.2000000000114 1164.2000000000114 1184.2000000000114 1204.2000000000114 1224.2000000000114 1244.2000000000114 1264.2000000000114
cb_01,32.0,enc_trial,stim,response,Iceland trip,1155.3999999988882,enc_trial,1.0,32.0,t_s_18_2,travel_shared,fold-a,first aid kit,1.0,competing,close,paired,t_s_18_2.jpg,,travel-b1,Iceland trip,Miami trip,sub-99,0.0,0.0,0.0,1.0,0.5080834114339269 0.5080834114339269 0.5073805060918463 0.5073805060918463 0.5073805060918463 0.5059746954076851 0.5059746954076851 0.5059746954076851 0.5059746954076851 0.5059746954076851 0.5059746954076851 0.5059746954076851 0.5059746954076851 0.5059746954076851 0.5059746954076851 0.5059746954076851 0.5059746954076851 0.5066776007497656 0.5017572633552015 0.4876991565135895 0.4581771321462043 0.4223289597000937 0.3738284910965323 0.3246251171508904 0.2669868791002812 0.23746485473289602 0.2149718837863168 0.1938847235238988 0.1798266166822868 0.1685801312089972 0.1573336457357076 0.1517104029990628 0.14819587628865982 0.14468134957825682 0.14257263355201502 0.1411668228678538 0.1411668228678538 0.1411668228678538 0.1411668228678538 0.1411668228678538 0.14046391752577322,0.8275538894095595 0.8275538894095595 0.8275538894095595 0.8275538894095595 0.8275538894095595 0.8275538894095595 0.8275538894095595 0.8275538894095595 0.8275538894095595 0.8275538894095595 0.8275538894095595 0.8275538894095595 0.8275538894095595 0.8275538894095595 0.8275538894095595 0.8275538894095595 0.8275538894095595 0.8238050609184631 0.8013120899718837 0.7628865979381443 0.7010309278350515 0.6373008434864105 0.5548266166822868 0.4751640112464854 0.3851921274601687 0.337394564198688 0.3036551077788191 0.2746016869728209 0.25773195876288657 0.2417994376757263 0.2221180880974696 0.21180880974695404 0.2052483598875351 0.2005623242736645 0.1968134957825679 0.19587628865979376 0.19587628865979376 0.19493908153701967 0.19493908153701967 0.19306466729147145 0.19025304592314907,254.5 274.5 294.5 314.5 334.5 354.5 374.5 394.5 414.5 434.5 454.5 474.5 494.5 514.5 534.5 554.5 574.5 594.5 614.5 634.5 654.5 674.5 694.5 714.5 734.5 754.5 774.5 794.5 814.5 834.5 854.5 874.5 894.5 914.5 934.5 954.5 974.5 994.5 1014.5 1034.5 1054.5
cb_01,33.0,enc_trial,stim,response,Miami trip,1099.5,enc_trial,1.0,33.0,t_s_04_1,travel_shared,fold-c-single,instant camera,1.0,competing,,single,t_s_04_1.jpg,,travel-b1,Iceland trip,Miami trip,sub-99,1.0,,1.0,,0.5137066541705717 0.5151124648547329 0.5165182755388941 0.5179240862230553 0.5186269915651359 0.5186269915651359 0.520032802249297 0.5221415182755389 0.5228444236176195 0.5228444236176195 0.5214386129334583 0.5418228678537957 0.5720477975632615 0.6170337394564198 0.6901358950328023 0.7393392689784443 0.7604264292408623 0.7744845360824743 0.7801077788191191 0.7850281162136833 0.7871368322399251 0.7871368322399251 0.7871368322399251 0.7871368322399251 0.7864339268978445 0.7857310215557639 0.7850281162136833 0.7850281162136833 0.7948687910028117 0.8068181818181819 0.8222820993439551 0.8314198687910028 0.8356373008434864 0.836340206185567,0.7975632614807873 0.7975632614807873 0.7975632614807873 0.7975632614807873 0.7975632614807873 0.7975632614807873 0.7966260543580131 0.7938144329896908 0.7881911902530458 0.7731958762886598 0.7460168697282099 0.6729147141518276 0.6119962511715089 0.5482661668228679 0.46485473289596996 0.4086223055295221 0.3739456419868791 0.3336457357075914 0.3045923149015932 0.2839737582005624 0.2671040299906279 0.2633552014995314 0.25585754451733833 0.24648547328959705 0.2371134020618557 0.22961574507966265 0.2268041237113401 0.2258669165885661 0.21649484536082475 0.19868791002811625 0.1790065604498594 0.16776007497656986 0.16307403936269915 0.16213683223992506,412.0 432.0 452.0 472.0 492.0 512.0 532.0 552.0 572.0 592.0 612.0 632.0 652.0 672.0 692.0 712.0 732.0 752.0 772.0 792.0 812.0 832.0 852.0 872.0 892.0 912.0 932.0 952.0 972.0 992.0 1012.0 1032.0 1052.0 1072.0
cb_01,34.0,enc_trial,stim,response,Iceland trip,1045.2999999988824,enc_trial,1.0,34.0,t_i_15_2,travel_Iceland,fold-a,compass,1.0,unique,close,paired,t_i_15_2.jpg,Iceland,travel-b1,Iceland trip,Miami trip,sub-99,1.0,1.0,1.0,1.0,0.4912136832239925 0.4905107778819119 0.4905107778819119 0.4905107778819119 0.4905107778819119 0.4905107778819119 0.4905107778819119 0.4905107778819119 0.4905107778819119 0.4905107778819119 0.4905107778819119 0.4905107778819119 0.4905107778819119 0.4905107778819119 0.4905107778819119 0.4905107778819119 0.4905107778819119 0.4905107778819119 0.4905107778819119 0.4905107778819119 0.4905107778819119 0.4912136832239925 0.4926194939081537 0.4940253045923149 0.4961340206185567 0.4961340206185567 0.4954311152764761 0.4954311152764761 0.4961340206185567 0.4961340206185567 0.4961340206185567 0.4940253045923149 0.4891049671977507 0.4743439550140581 0.4145970009372072 0.34571227741330834 0.2894798500468604 0.2409793814432989 0.22129803186504216 0.1981021555763824 0.1629568884723524 0.14046391752577322 0.12429709465791942 0.11234770384254923 0.09828959700093724 0.08844892221180882 0.08212277413308343 0.08704311152764763 0.09407216494845363,0.7994376757263355 0.8041237113402062 0.8050609184629803 0.8059981255857545 0.8059981255857545 0.8059981255857545 0.8059981255857545 0.8059981255857545 0.8059981255857545 0.8059981255857545 0.8059981255857545 0.8059981255857545 0.8059981255857545 0.8059981255857545 0.8059981255857545 0.8059981255857545 0.8059981255857545 0.8059981255857545 0.8059981255857545 0.8059981255857545 0.8041237113402062 0.8013120899718837 0.7947516401124648 0.7694470477975632 0.7169634489222119 0.6682286785379569 0.6185567010309279 0.5688847235238987 0.5426429240862229 0.5107778819119025 0.4770384254920338 0.4554826616682287 0.43486410496719774 0.407685098406748 0.337394564198688 0.2802249297094658 0.2427366447985005 0.21649484536082475 0.2052483598875351 0.1921274601686973 0.17338331771321458 0.16307403936269915 0.1565135895032802 0.1518275538894096 0.14995313964386126 0.15089034676663535 0.15089034676663535 0.14901593252108716 0.1433926897844423,84.79999999998836 104.79999999998836 124.79999999998836 144.7999999999884 164.7999999999884 184.79999999998842 204.79999999998842 224.79999999998842 244.79999999998842 264.7999999999884 284.79999999998836 304.79999999998836 324.79999999998836 344.7999999999884 364.7999999999884 384.7999999999884 404.7999999999884 424.7999999999884 444.7999999999884 464.7999999999884 484.7999999999884 504.7999999999884 524.7999999999884 544.7999999999884 564.7999999999884 584.7999999999884 604.7999999999884 624.7999999999884 644.7999999999884 664.7999999999884 684.7999999999884 704.7999999999884 724.7999999999884 744.7999999999884 764.7999999999884 784.7999999999884 804.7999999999884 824.7999999999884 844.7999999999884 864.7999999999884 884.7999999999884 904.7999999999884 924.7999999999884 944.7999999999884 964.7999999999884 984.7999999999884 1004.7999999999884 1024.7999999999884 1044.7999999999884
cb_01,35.0,enc_trial,stim,response,Miami trip,935.4999999996215,enc_trial,1.0,35.0,t_s_02_2,travel_shared,fold-b,water bottle,1.0,competing,far,paired,t_s_02_2.jpg,,travel-b1,Iceland trip,Miami trip,sub-99,0.0,0.0,1.0,1.0,0.4954311152764761 0.5263589503280225 0.5734536082474226 0.6156279287722587 0.6725632614807873 0.7119259606373008 0.7386363636363638 0.7632380506091847 0.7822164948453609 0.7983833177132147 0.8152530459231491 0.8264995313964387 0.836340206185567 0.8433692596063731 0.8511012183692597 0.8546157450796626 0.8588331771321462 0.8665651358950328 0.871485473289597 0.8757029053420806 0.8785145267104031 0.8799203373945642 0.8799203373945642,0.8313027179006559 0.8069353327085286 0.753514526710403 0.6972820993439549 0.6063730084348641 0.5379568884723525 0.485473289597001 0.4329896907216495 0.3936269915651359 0.3608247422680413 0.32333645735707595 0.2989690721649485 0.27835051546391754 0.2633552014995314 0.24742268041237114 0.2399250234301781 0.2314901593252109 0.2146204311152765 0.2052483598875351 0.19400187441424555 0.1790065604498594 0.17150890346766634 0.16869728209934398,393.7999999999884 413.7999999999884 433.7999999999884 453.7999999999884 473.7999999999884 493.7999999999884 513.7999999999884 533.7999999999884 553.7999999999884 573.7999999999884 593.7999999999884 613.7999999999884 633.7999999999884 653.7999999999884 673.7999999999884 693.7999999999884 713.7999999999884 733.7999999999884 753.7999999999884 773.7999999999884 793.7999999999884 813.7999999999884 833.7999999999884
cb_01,36.0,enc_trial,stim,response,Iceland trip,1186.1000000003842,enc_trial,1.0,36.0,t_s_20_1,travel_shared,fold-a,travel pill case,1.0,competing,close,paired,t_s_20_1.jpg,,travel-b1,Iceland trip,Miami trip,sub-99,1.0,1.0,1.0,0.0,0.5010543580131209 0.5003514526710403 0.4975398313027179 0.4940253045923149 0.4884020618556701 0.4848875351452671 0.4792642924086223 0.4609887535145267 0.4370899718837864 0.4174086223055296 0.3984301780693533 0.3836691658856608 0.363987816307404 0.34149484536082475 0.31478444236176195 0.2951030927835052 0.2754217432052484 0.2529287722586692 0.2402764761012184 0.2297328959700094 0.2149718837863168 0.1981021555763824 0.1784208059981256 0.167174320524836 0.15803655107778822 0.153116213683224 0.1474929709465792 0.1418697282099344 0.1397610121836926 0.13905810684161202 0.13905810684161202 0.13905810684161202 0.1341377694470478 0.132029053420806 0.132029053420806,0.8181818181818181 0.8153701968134958 0.8069353327085286 0.7938144329896908 0.7731958762886598 0.7582005623242737 0.7347703842549204 0.6822867853795689 0.6288659793814433 0.5932521087160263 0.5576382380506092 0.5313964386129335 0.4995313964386129 0.4695407685098407 0.43486410496719774 0.4086223055295221 0.3795688847235239 0.3467666354264293 0.32895970009372066 0.31396438612933464 0.2895970009372071 0.26616682286785376 0.2408622305529522 0.2230552952202437 0.2099343955014058 0.2014995313964386 0.19493908153701967 0.18650421743205248 0.1818181818181817 0.18088097469540765 0.18088097469540765 0.18088097469540765 0.17244611059044046 0.16869728209934398 0.16776007497656986,466.6000000000058 486.6000000000058 506.6000000000058 526.6000000000058 546.6000000000058 566.6000000000057 586.6000000000057 606.6000000000057 626.6000000000057 646.6000000000057 666.6000000000057 686.6000000000057 706.6000000000058 726.6000000000058 746.6000000000058 766.6000000000058 786.6000000000058 806.6000000000058 826.6000000000058 846.6000000000058 866.6000000000058 886.6000000000058 906.6000000000058 926.6000000000058 946.6000000000058 966.6000000000058 986.6000000000058 1006.6000000000058 1026.6000000000058 1046.6000000000058 1066.6000000000058 1086.6000000000058 1106.6000000000058 1126.6000000000058 1146.6000000000058
