Current Spreadsheet,Trial Number,Display,Screen,Response Type,Response,Reaction Time,display,block,block_trial,stimulus_id,expected_goal,fold,stimulus_name,c_group,condition,within_block_dist,paired_status,stimulus_path,expected_location,block_split,respStim_1,respStim_2,sub_label,acc,both_enc_acc,assoc_stim1_acc,assoc_stim2_acc,x_pos,y_pos,time_trajectories
cb_06,1.0,enc_trial,stim,response,STEM students,2254.2000000059493,enc_trial,1.0,1.0,s_s_14_1,student_stem,fold-e,funnel,6.0,unique,close,paired,s_s_14_1.jpg,stem,student-b1,STEM students,Fine Arts students,sub-01,1.0,1.0,1.0,1.0,0.471875 0.471875 0.471875 0.471875 0.4739583333333333 0.4770833333333334 0.4791666666666667 0.48125 0.484375 0.4895833333333333 0.5010416666666667 0.5010416666666667 0.503125 0.503125 0.503125 0.5010416666666667 0.4989583333333333 0.4958333333333334 0.4947916666666667 0.4927083333333334 0.4916666666666666 0.490625 0.4895833333333333 0.4895833333333333 0.4895833333333333 0.4895833333333333 0.4895833333333333 0.4895833333333333 0.4895833333333333 0.4895833333333333 0.4895833333333333 0.4895833333333333 0.4895833333333333 0.4895833333333333 0.4895833333333333 0.49375 0.4979166666666667 0.5041666666666667 0.515625 0.525 0.5510416666666667 0.571875 0.5770833333333333 0.5802083333333333 0.5802083333333333 0.5833333333333334 0.5895833333333333 0.5958333333333333 0.6072916666666667 0.6322916666666667 0.68125 0.6833333333333333 0.6833333333333333 0.6833333333333333 0.6833333333333333 0.6833333333333333 0.6791666666666667 0.671875 0.6614583333333334 0.6447916666666667 0.5864583333333333 0.5270833333333333 0.490625 0.4583333333333333 0.421875 0.31666666666666665 0.25729166666666664 0.19791666666666666 0.140625 0.08020833333333334 0.0 -0.01875 -0.02083333333333333 -0.02083333333333333 -0.019791666666666662 -0.019791666666666662 -0.019791666666666662 -0.01875 -0.017708333333333333 -0.014583333333333334 -0.003125 0.004166666666666668 0.004166666666666668 0.00625 0.008333333333333333 0.016666666666666666 0.025 0.034375 0.04166666666666666 0.04583333333333333 0.04791666666666667 0.04791666666666667 0.051041666666666666 0.0625 0.07083333333333333 0.07604166666666666 0.07708333333333334,0.8138888888888889 0.8097222222222222 0.8041666666666667 0.7972222222222223 0.7833333333333333 0.7541666666666667 0.7416666666666667 0.7305555555555556 0.7125 0.6930555555555555 0.6680555555555556 0.6680555555555556 0.6680555555555556 0.6694444444444445 0.675 0.6972222222222222 0.7055555555555555 0.7166666666666667 0.7236111111111111 0.7277777777777779 0.7319444444444445 0.7375 0.7416666666666667 0.7430555555555556 0.7472222222222222 0.7527777777777778 0.7541666666666667 0.7541666666666667 0.7541666666666667 0.7541666666666667 0.7541666666666667 0.7541666666666667 0.7527777777777778 0.7486111111111111 0.7430555555555556 0.7222222222222222 0.6972222222222222 0.6583333333333333 0.6111111111111112 0.575 0.4861111111111112 0.425 0.4041666666666667 0.3902777777777777 0.3805555555555555 0.34444444444444444 0.3222222222222222 0.30000000000000004 0.275 0.2444444444444445 0.1805555555555556 0.16666666666666666 0.16249999999999998 0.1611111111111111 0.1611111111111111 0.1611111111111111 0.16388888888888886 0.1680555555555555 0.17361111111111116 0.18194444444444446 0.20138888888888884 0.21666666666666667 0.21944444444444444 0.21944444444444444 0.21944444444444444 0.21944444444444444 0.21944444444444444 0.21944444444444444 0.21944444444444444 0.2222222222222222 0.2305555555555555 0.2305555555555555 0.2305555555555555 0.2305555555555555 0.225 0.2222222222222222 0.22083333333333333 0.2180555555555556 0.2138888888888889 0.2069444444444445 0.19166666666666665 0.18333333333333326 0.18333333333333326 0.18194444444444446 0.1805555555555556 0.17500000000000004 0.16666666666666666 0.15833333333333333 0.1527777777777778 0.1513888888888889 0.15000000000000002 0.15000000000000002 0.15000000000000002 0.15000000000000002 0.14722222222222225 0.1444444444444445 0.1444444444444445,283.0999999999767 303.0999999999767 323.0999999999767 343.0999999999767 363.09999999997666 383.09999999997666 403.09999999997666 423.09999999997666 443.09999999997666 463.09999999997666 483.09999999997666 503.09999999997666 523.0999999999766 543.0999999999766 563.0999999999767 583.0999999999767 603.0999999999767 623.0999999999767 643.0999999999767 663.0999999999767 683.0999999999767 703.0999999999768 723.0999999999768 743.0999999999768 763.0999999999768 783.0999999999768 803.0999999999768 823.0999999999768 843.0999999999768 863.0999999999768 883.0999999999768 903.0999999999768 923.0999999999768 943.0999999999768 963.0999999999768 983.0999999999768 1003.0999999999768 1023.0999999999768 1043.0999999999767 1063.0999999999767 1083.0999999999767 1103.0999999999767 1123.0999999999767 1143.0999999999767 1163.0999999999767 1183.0999999999767 1203.0999999999767 1223.0999999999767 1243.0999999999767 1263.0999999999767 1283.0999999999767 1303.0999999999767 1323.0999999999767 1343.0999999999767 1363.0999999999767 1383.0999999999767 1403.0999999999767 1423.0999999999767 1443.0999999999767 1463.0999999999767 1483.0999999999767 1503.0999999999767 1523.0999999999767 1543.0999999999767 1563.0999999999767 1583.0999999999767 1603.0999999999767 1623.0999999999767 1643.0999999999767 1663.0999999999767 1683.0999999999767 1703.0999999999767 1723.0999999999767 1743.0999999999767 1763.0999999999767 1783.0999999999767 1803.0999999999767 1823.0999999999767 1843.0999999999767 1863.0999999999767 1883.0999999999767 1903.0999999999767 1923.0999999999767 1943.0999999999767 1963.0999999999767 1983.0999999999767 2003.0999999999767 2023.0999999999767 2043.0999999999767 2063.0999999999767 2083.0999999999767 2103.0999999999767 2123.0999999999767 2143.0999999999767 2163.0999999999767 2183.0999999999767 2203.0999999999767
cb_06,2.0,enc_trial,stim,response,Fine Arts students,1324.5,enc_trial,1.0,2.0,s_a_15_1,student_art,fold-d,drum kit,6.0,unique,far,paired,s_a_15_1.jpg,art,student-b1,STEM students,Fine Arts students,sub-01,1.0,1.0,1.0,1.0,0.4895833333333333 0.4895833333333333 0.4895833333333333 0.4875 0.4854166666666666 0.4833333333333333 0.4833333333333333 0.4833333333333333 0.4833333333333333 0.4822916666666667 0.48125 0.4791666666666667 0.478125 0.475 0.4729166666666666 0.471875 0.4770833333333334 0.4791666666666667 0.48125 0.48125 0.4791666666666667 0.475 0.4666666666666667 0.4520833333333333 0.42604166666666665 0.36770833333333336 0.34375 0.33125 0.321875 0.31666666666666665 0.3125 0.3104166666666667 0.3083333333333333 0.3083333333333333 0.3104166666666667 0.35625 0.41875 0.4864583333333333 0.5479166666666667 0.59375 0.6645833333333333 0.6875 0.709375 0.734375 0.7708333333333334 0.7979166666666667 0.8083333333333333 0.8145833333333333 0.81875 0.825 0.8458333333333333 0.8479166666666667 0.8489583333333334 0.8479166666666667 0.8458333333333333 0.84375 0.8427083333333333 0.8427083333333333 0.8416666666666667 0.8416666666666667 0.8416666666666667 0.8427083333333333 0.8427083333333333 0.84375 0.84375 0.84375,0.7277777777777779 0.725 0.7180555555555556 0.7069444444444444 0.7 0.6888888888888889 0.6875 0.6847222222222222 0.6833333333333333 0.6791666666666667 0.6708333333333334 0.6652777777777779 0.6555555555555556 0.6361111111111111 0.6208333333333333 0.5722222222222222 0.5402777777777779 0.5152777777777777 0.4986111111111111 0.4805555555555555 0.4472222222222222 0.4305555555555556 0.4166666666666666 0.4041666666666667 0.3888888888888888 0.3597222222222223 0.3430555555555556 0.3222222222222222 0.2986111111111112 0.2791666666666667 0.24722222222222226 0.2333333333333333 0.2236111111111111 0.2152777777777778 0.1972222222222222 0.15000000000000002 0.11388888888888893 0.08472222222222225 0.06666666666666665 0.05555555555555558 0.03749999999999998 0.033333333333333326 0.033333333333333326 0.033333333333333326 0.033333333333333326 0.033333333333333326 0.03055555555555556 0.02777777777777779 0.02777777777777779 0.02777777777777779 0.033333333333333326 0.03749999999999998 0.04166666666666663 0.04722222222222228 0.05277777777777781 0.05972222222222224 0.06388888888888887 0.06666666666666665 0.0708333333333333 0.07222222222222219 0.07638888888888884 0.07777777777777772 0.07777777777777772 0.07916666666666672 0.07916666666666672 0.0805555555555556,0.0 20.0 40.0 60.0 80.0 100.0 120.0 140.0 160.0 180.0 200.0 220.0 240.0 260.0 280.0 300.0 320.0 340.0 360.0 380.0 400.0 420.0 440.0 460.0 480.0 500.0 520.0 540.0 560.0 580.0 600.0 620.0 640.0 660.0 680.0 700.0 720.0 740.0 760.0 780.0 800.0 820.0 840.0 860.0 880.0 900.0 920.0 940.0 960.0 980.0 1000.0 1020.0 1040.0 1060.0 1080.0 1100.0 1120.0 1140.0 1160.0 1180.0 1200.0 1220.0 1240.0 1260.0 1280.0 1300.0
cb_06,3.0,enc_trial,stim,response,STEM students,2069.4999999821302,enc_trial,1.0,3.0,s_sh_23_1,student_shared,fold-a-single,ballpoint pen,6.0,competing,,single,s_sh_23_1.jpg,,student-b1,STEM students,Fine Arts students,sub-01,1.0,,1.0,,0.5177083333333333 0.5166666666666667 0.515625 0.5145833333333333 0.5125 0.509375 0.5083333333333333 0.5083333333333333 0.5083333333333333 0.5072916666666667 0.5072916666666667 0.5072916666666667 0.5072916666666667 0.5072916666666667 0.5072916666666667 0.5 0.4958333333333334 0.490625 0.48125 0.465625 0.43333333333333335 0.421875 0.4125 0.4 0.3739583333333333 0.34375 0.33229166666666665 0.3229166666666667 0.3125 0.30416666666666664 0.2875 0.27395833333333336 0.2677083333333333 0.2677083333333333 0.2677083333333333 0.2677083333333333 0.2677083333333333 0.2677083333333333 0.2677083333333333 0.2677083333333333 0.2677083333333333 0.228125 0.22291666666666668 0.21875 0.215625 0.2083333333333333 0.2083333333333333 0.21041666666666667 0.215625 0.2239583333333333 0.2458333333333333 0.2520833333333333 0.253125 0.25625 0.2625 0.265625 0.265625 0.265625 0.2635416666666667 0.25625 0.22083333333333333 0.19375 0.171875 0.16458333333333333 0.1625 0.1625 0.16145833333333334 0.16145833333333334 0.16770833333333332 0.18645833333333334 0.2791666666666667 0.3489583333333333 0.4125 0.4645833333333334 0.4989583333333333 0.5927083333333333 0.646875 0.6802083333333333 0.6989583333333333 0.70625 0.7104166666666667 0.715625 0.7239583333333334 0.7322916666666667 0.7333333333333333 0.73125 0.7114583333333333 0.65625 0.5697916666666667 0.4708333333333333 0.2916666666666667 0.225 0.18958333333333333 0.17291666666666666 0.16875 0.16666666666666666 0.165625 0.16458333333333333 0.16458333333333333 0.16354166666666667 0.1625,0.8 0.8 0.8 0.7986111111111112 0.7958333333333334 0.7875 0.7833333333333333 0.7777777777777778 0.775 0.7708333333333334 0.7680555555555555 0.7666666666666666 0.7625 0.7541666666666667 0.7444444444444445 0.6986111111111111 0.6694444444444445 0.6347222222222222 0.5930555555555556 0.5472222222222223 0.4833333333333333 0.4638888888888889 0.45 0.4388888888888889 0.425 0.4013888888888889 0.3875 0.37222222222222223 0.3555555555555555 0.3402777777777778 0.3111111111111111 0.2958333333333333 0.2888888888888889 0.2888888888888889 0.2888888888888889 0.2888888888888889 0.2888888888888889 0.2888888888888889 0.2888888888888889 0.2888888888888889 0.2888888888888889 0.2 0.18472222222222226 0.17361111111111116 0.16388888888888886 0.14722222222222225 0.1430555555555556 0.13749999999999996 0.1347222222222222 0.13055555555555556 0.125 0.12638888888888888 0.12638888888888888 0.12777777777777774 0.13055555555555556 0.13194444444444442 0.13194444444444442 0.13194444444444442 0.1333333333333333 0.13611111111111107 0.14722222222222225 0.15416666666666667 0.15694444444444444 0.15694444444444444 0.15694444444444444 0.15694444444444444 0.15694444444444444 0.15555555555555556 0.15000000000000002 0.14027777777777772 0.11388888888888893 0.09583333333333333 0.07916666666666672 0.06666666666666665 0.05972222222222224 0.056944444444444464 0.04861111111111116 0.04305555555555552 0.04305555555555552 0.04305555555555552 0.04305555555555552 0.0444444444444444 0.04722222222222228 0.05000000000000005 0.05000000000000005 0.054166666666666696 0.05972222222222224 0.07499999999999996 0.0972222222222222 0.12222222222222225 0.14166666666666672 0.14861111111111114 0.15000000000000002 0.15000000000000002 0.15000000000000002 0.15000000000000002 0.14861111111111114 0.14722222222222225 0.14722222222222225 0.14722222222222225 0.14722222222222225,0.0 20.0 40.0 60.0 80.0 100.0 120.0 140.0 160.0 180.0 200.0 220.0 240.0 260.0 280.0 300.0 320.0 340.0 360.0 380.0 400.0 420.0 440.0 460.0 480.0 500.0 520.0 540.0 560.0 580.0 600.0 620.0 640.0 660.0 680.0 700.0 720.0 740.0 760.0 780.0 800.0 820.0 840.0 860.0 880.0 900.0 920.0 940.0 960.0 980.0 1000.0 1020.0 1040.0 1060.0 1080.0 1100.0 1120.0 1140.0 1160.0 1180.0 1200.0 1220.0 1240.0 1260.0 1280.0 1300.0 1320.0 1340.0 1360.0 1380.0 1400.0 1420.0 1440.0 1460.0 1480.0 1500.0 1520.0 1540.0 1560.0 1580.0 1600.0 1620.0 1640.0 1660.0 1680.0 1700.0 1720.0 1740.0 1760.0 1780.0 1800.0 1820.0 1840.0 1860.0 1880.0 1900.0 1920.0 1940.0 1960.0 1980.0 2000.0
cb_06,4.0,enc_trial,stim,response,STEM students,1448.6000000000354,enc_trial,1.0,4.0,s_s_20_1,student_stem,fold-d,dna model,6.0,unique,far,paired,s_s_20_1.jpg,stem,student-b1,STEM students,Fine Arts students,sub-01,1.0,1.0,1.0,1.0,0.4770833333333334 0.4791666666666667 0.4802083333333334 0.48125 0.4833333333333333 0.4854166666666666 0.4864583333333333 0.4875 0.4885416666666666 0.4895833333333333 0.4895833333333333 0.4895833333333333 0.4895833333333333 0.4895833333333333 0.4895833333333333 0.4895833333333333 0.4895833333333333 0.4916666666666666 0.4916666666666666 0.490625 0.4875 0.4864583333333333 0.4854166666666666 0.4822916666666667 0.4791666666666667 0.46875 0.4614583333333334 0.45 0.4354166666666667 0.4208333333333333 0.403125 0.396875 0.39479166666666665 0.39375 0.39375 0.39479166666666665 0.3958333333333333 0.3958333333333333 0.3958333333333333 0.3958333333333333 0.4 0.403125 0.40625 0.415625 0.42291666666666666 0.4479166666666667 0.4604166666666666 0.4729166666666666 0.484375 0.490625 0.49375 0.490625 0.46875 0.44166666666666665 0.4041666666666667 0.3239583333333333 0.2958333333333333 0.2708333333333333 0.2479166666666667 0.225 0.19375 0.18854166666666666 0.18541666666666667 0.18333333333333326 0.18229166666666666 0.17916666666666667 0.17708333333333334 0.17604166666666668 0.175 0.175 0.175,0.7638888888888888 0.7569444444444444 0.7513888888888889 0.7416666666666667 0.7333333333333334 0.7111111111111111 0.7055555555555555 0.7 0.6930555555555555 0.6861111111111111 0.6638888888888889 0.6638888888888889 0.6638888888888889 0.6638888888888889 0.6638888888888889 0.6638888888888889 0.6638888888888889 0.5222222222222221 0.4888888888888889 0.4708333333333333 0.4388888888888889 0.4319444444444445 0.4277777777777778 0.425 0.4222222222222223 0.4166666666666666 0.4111111111111111 0.4 0.3875 0.3763888888888889 0.3555555555555555 0.3402777777777778 0.3291666666666667 0.3208333333333333 0.3111111111111111 0.2944444444444444 0.2861111111111111 0.2805555555555556 0.275 0.2666666666666667 0.25555555555555554 0.25 0.24722222222222226 0.2444444444444445 0.2416666666666667 0.2361111111111112 0.2319444444444444 0.22916666666666666 0.2263888888888889 0.2263888888888889 0.2277777777777777 0.22916666666666666 0.23750000000000004 0.2416666666666667 0.2458333333333333 0.2458333333333333 0.2458333333333333 0.2430555555555556 0.2361111111111112 0.2236111111111111 0.2 0.1944444444444444 0.18888888888888888 0.1875 0.18611111111111112 0.18194444444444446 0.1805555555555556 0.1791666666666667 0.1777777777777778 0.17638888888888893 0.17500000000000004,0.0 20.0 40.0 60.0 80.0 100.0 120.0 140.0 160.0 180.0 200.0 220.0 240.0 260.0 280.0 300.0 320.0 340.0 360.0 380.0 400.0 420.0 440.0 460.0 480.0 500.0 520.0 540.0 560.0 580.0 600.0 620.0 640.0 660.0 680.0 700.0 720.0 740.0 760.0 780.0 800.0 820.0 840.0 860.0 880.0 900.0 920.0 940.0 960.0 980.0 1000.0 1020.0 1040.0 1060.0 1080.0 1100.0 1120.0 1140.0 1160.0 1180.0 1200.0 1220.0 1240.0 1260.0 1280.0 1300.0 1320.0 1340.0 1360.0 1380.0 1400.0
cb_06,5.0,enc_trial,stim,response,STEM students,1376.8999999880907,enc_trial,1.0,5.0,s_sh_24_1,student_shared,fold-b,desk organizer,6.0,competing,far,paired,s_sh_24_1.jpg,,student-b1,STEM students,Fine Arts students,sub-01,1.0,1.0,0.0,0.0,0.4895833333333333 0.4885416666666666 0.4875 0.4864583333333333 0.4854166666666666 0.4833333333333333 0.478125 0.4729166666666666 0.46875 0.4625 0.4510416666666667 0.44375 0.43333333333333335 0.4166666666666667 0.39479166666666665 0.3229166666666667 0.275 0.2552083333333333 0.2385416666666667 0.228125 0.22083333333333333 0.21770833333333334 0.21666666666666667 0.21458333333333326 0.21145833333333333 0.20625 0.20625 0.21770833333333334 0.2375 0.259375 0.290625 0.2958333333333333 0.2989583333333333 0.3083333333333333 0.31875 0.325 0.3260416666666667 0.3239583333333333 0.31666666666666665 0.28958333333333336 0.2083333333333333 0.15416666666666667 0.10416666666666667 0.060416666666666674 0.022916666666666655 -0.009375 -0.0125 -0.014583333333333334 -0.014583333333333334 -0.014583333333333334 -0.014583333333333334 -0.014583333333333334 -0.014583333333333334 -0.014583333333333334 -0.0125 0.00625 0.019791666666666662 0.03125 0.04270833333333333 0.0625 0.08541666666666667 0.09270833333333334 0.09479166666666666 0.09583333333333334,0.7888888888888889 0.7861111111111111 0.7833333333333333 0.7791666666666667 0.775 0.7666666666666666 0.7569444444444444 0.75 0.7402777777777778 0.7277777777777779 0.7027777777777777 0.6875 0.6666666666666667 0.6430555555555555 0.6180555555555556 0.5277777777777778 0.4583333333333334 0.425 0.3944444444444445 0.37222222222222223 0.33333333333333337 0.3138888888888889 0.2972222222222223 0.2777777777777778 0.2611111111111111 0.2319444444444444 0.2236111111111111 0.2055555555555556 0.1930555555555556 0.18333333333333326 0.17500000000000004 0.17500000000000004 0.17500000000000004 0.17361111111111116 0.17083333333333328 0.1680555555555555 0.16666666666666666 0.16666666666666666 0.16666666666666666 0.16666666666666666 0.16666666666666666 0.16666666666666666 0.16666666666666666 0.16666666666666666 0.1680555555555555 0.1694444444444444 0.1694444444444444 0.1694444444444444 0.1694444444444444 0.1694444444444444 0.1694444444444444 0.1694444444444444 0.1694444444444444 0.1694444444444444 0.1694444444444444 0.16388888888888886 0.1611111111111111 0.15833333333333333 0.15833333333333333 0.15833333333333333 0.15833333333333333 0.15833333333333333 0.15833333333333333 0.1597222222222222,33.400000000023276 53.400000000023276 73.40000000002328 93.40000000002328 113.40000000002328 133.40000000002328 153.40000000002328 173.40000000002328 193.40000000002328 213.40000000002328 233.40000000002328 253.40000000002328 273.4000000000233 293.4000000000233 313.4000000000233 333.4000000000233 353.40000000002334 373.40000000002334 393.40000000002334 413.40000000002334 433.40000000002334 453.40000000002334 473.40000000002334 493.40000000002334 513.4000000000234 533.4000000000234 553.4000000000234 573.4000000000233 593.4000000000233 613.4000000000233 633.4000000000233 653.4000000000233 673.4000000000233 693.4000000000232 713.4000000000232 733.4000000000232 753.4000000000232 773.4000000000232 793.4000000000232 813.4000000000232 833.4000000000232 853.4000000000232 873.4000000000232 893.4000000000232 913.4000000000232 933.4000000000232 953.4000000000232 973.4000000000232 993.4000000000232 1013.4000000000232 1033.4000000000233 1053.4000000000233 1073.4000000000233 1093.4000000000233 1113.4000000000233 1133.4000000000233 1153.4000000000233 1173.4000000000233 1193.4000000000233 1213.4000000000233 1233.4000000000233 1253.4000000000233 1273.4000000000233 1293.4000000000233
cb_06,6.0,enc_trial,stim,response,STEM students,977.8000000059836,enc_trial,1.0,6.0,s_s_14_2,student_stem,fold-e,funnel,6.0,unique,close,paired,s_s_14_2.jpg,stem,student-b1,STEM students,Fine Arts students,sub-01,1.0,1.0,1.0,1.0,0.4916666666666666 0.4916666666666666 0.4916666666666666 0.4916666666666666 0.490625 0.4895833333333333 0.4895833333333333 0.490625 0.4916666666666666 0.4916666666666666 0.49375 0.4927083333333334 0.4895833333333333 0.484375 0.478125 0.459375 0.44583333333333336 0.4270833333333333 0.40208333333333335 0.3614583333333333 0.25625 0.25625 0.25625 0.16145833333333334 0.15625 0.15208333333333332 0.15104166666666666 0.15 0.15 0.15 0.14166666666666666 0.13645833333333332 0.12708333333333333 0.12395833333333335 0.12291666666666665 0.121875,0.7972222222222223 0.7972222222222223 0.7944444444444445 0.7916666666666666 0.7875 0.775 0.7638888888888888 0.7555555555555555 0.7416666666666667 0.7291666666666667 0.7013888888888888 0.6805555555555556 0.6638888888888889 0.6444444444444444 0.625 0.5972222222222222 0.5805555555555555 0.5611111111111111 0.5347222222222222 0.4916666666666667 0.37777777777777777 0.37777777777777777 0.37777777777777777 0.2 0.17500000000000004 0.14722222222222225 0.1430555555555556 0.14027777777777772 0.13888888888888884 0.13888888888888884 0.13611111111111107 0.13055555555555556 0.1166666666666667 0.10972222222222228 0.10416666666666664 0.10277777777777776,183.20000000001164 203.20000000001164 223.20000000001164 243.20000000001164 263.20000000001164 283.20000000001164 303.20000000001164 323.20000000001164 343.20000000001164 363.2000000000117 383.2000000000117 403.2000000000117 423.2000000000117 443.2000000000117 463.2000000000117 483.2000000000117 503.2000000000117 523.2000000000116 543.2000000000116 563.2000000000116 583.2000000000116 603.2000000000116 623.2000000000116 643.2000000000116 663.2000000000116 683.2000000000116 703.2000000000116 723.2000000000116 743.2000000000116 763.2000000000116 783.2000000000116 803.2000000000116 823.2000000000116 843.2000000000116 863.2000000000116 883.2000000000116
cb_06,7.0,enc_trial,stim,response,STEM students,1498.7000000059488,enc_trial,1.0,7.0,s_sh_09_1,student_shared,fold-c,paper clips,6.0,competing,close,paired,s_sh_09_1.jpg,,student-b1,STEM students,Fine Arts students,sub-01,1.0,1.0,1.0,1.0,0.50625 0.5041666666666667 0.503125 0.5020833333333333 0.5 0.5 0.5 0.5 0.4989583333333333 0.4989583333333333 0.4989583333333333 0.4989583333333333 0.4979166666666667 0.49375 0.4895833333333333 0.4802083333333334 0.4729166666666666 0.4645833333333334 0.45625 0.44895833333333335 0.4354166666666667 0.43333333333333335 0.4291666666666665 0.4208333333333333 0.4083333333333333 0.37916666666666665 0.365625 0.3541666666666667 0.346875 0.34375 0.34791666666666665 0.35 0.3541666666666667 0.3552083333333333 0.3552083333333333 0.3552083333333333 0.3552083333333333 0.3541666666666667 0.34791666666666665 0.33541666666666664 0.29375 0.28125 0.26979166666666665 0.25416666666666665 0.2416666666666667 0.21666666666666667 0.2083333333333333 0.20104166666666667 0.196875 0.19375 0.18541666666666667 0.18125 0.17395833333333333 0.17083333333333334 0.16875 0.16458333333333333 0.16354166666666667 0.16145833333333334 0.16041666666666668 0.15729166666666666 0.15416666666666667,0.8291666666666666 0.825 0.8194444444444444 0.8138888888888889 0.8083333333333333 0.7944444444444445 0.7833333333333333 0.775 0.7666666666666666 0.7583333333333333 0.7277777777777779 0.7138888888888889 0.6972222222222222 0.6819444444444445 0.6611111111111111 0.6111111111111112 0.5833333333333333 0.5486111111111112 0.5111111111111111 0.475 0.4194444444444444 0.4013888888888889 0.3888888888888888 0.37777777777777777 0.3666666666666667 0.35 0.3416666666666667 0.3305555555555556 0.3222222222222222 0.3138888888888889 0.2930555555555555 0.2888888888888889 0.2875 0.2861111111111111 0.2861111111111111 0.2861111111111111 0.2861111111111111 0.2861111111111111 0.2861111111111111 0.2861111111111111 0.2805555555555556 0.2763888888888889 0.2694444444444445 0.2583333333333333 0.24722222222222226 0.225 0.21666666666666667 0.2055555555555556 0.19861111111111107 0.19166666666666665 0.18333333333333326 0.1777777777777778 0.17222222222222228 0.1694444444444444 0.1694444444444444 0.16249999999999998 0.1611111111111111 0.15833333333333333 0.15694444444444444 0.15555555555555556 0.15555555555555556,199.8999999999651 219.8999999999651 239.8999999999651 259.8999999999651 279.8999999999651 299.89999999996513 319.89999999996513 339.89999999996513 359.89999999996513 379.89999999996513 399.89999999996513 419.89999999996513 439.89999999996513 459.89999999996513 479.89999999996513 499.89999999996513 519.8999999999652 539.8999999999652 559.8999999999652 579.8999999999652 599.8999999999652 619.8999999999652 639.8999999999652 659.8999999999652 679.8999999999652 699.8999999999651 719.8999999999651 739.8999999999651 759.8999999999651 779.8999999999651 799.8999999999651 819.8999999999651 839.8999999999651 859.8999999999651 879.8999999999651 899.8999999999651 919.8999999999652 939.8999999999652 959.8999999999652 979.8999999999652 999.8999999999652 1019.8999999999652 1039.899999999965 1059.899999999965 1079.899999999965 1099.899999999965 1119.899999999965 1139.899999999965 1159.899999999965 1179.899999999965 1199.899999999965 1219.899999999965 1239.899999999965 1259.899999999965 1279.899999999965 1299.899999999965 1319.899999999965 1339.899999999965 1359.899999999965 1379.8999999999648 1399.8999999999648
cb_06,8.0,enc_trial,stim,response,Fine Arts students,1702.99999998213,enc_trial,1.0,8.0,s_a_09_2,student_art,fold-e,picture frame,6.0,unique,close,paired,s_a_09_2.jpg,art,student-b1,STEM students,Fine Arts students,sub-01,1.0,1.0,1.0,1.0,0.503125 0.503125 0.5020833333333333 0.5020833333333333 0.5020833333333333 0.5020833333333333 0.5 0.5 0.5 0.4979166666666667 0.4875 0.4822916666666667 0.4802083333333334 0.4802083333333334 0.4822916666666667 0.490625 0.4927083333333334 0.4927083333333334 0.4958333333333334 0.4979166666666667 0.4979166666666667 0.4875 0.475 0.4604166666666666 0.44375 0.425 0.4208333333333333 0.4208333333333333 0.4208333333333333 0.4208333333333333 0.4208333333333333 0.4208333333333333 0.4208333333333333 0.4208333333333333 0.3270833333333333 0.31875 0.3104166666666667 0.3 0.29375 0.290625 0.28854166666666664 0.3072916666666667 0.35104166666666664 0.45 0.5875 0.8197916666666667 0.8833333333333333 0.9114583333333334 0.9270833333333334 0.9333333333333332 0.9479166666666666 0.959375 0.9677083333333332 0.9729166666666668 0.9770833333333332 1.025 1.025 1.0677083333333333 1.0729166666666667 1.0729166666666667 1.0729166666666667 1.0729166666666667 1.0729166666666667 1.0708333333333333 1.05625 1.0072916666666667 0.990625 0.9791666666666666 0.9708333333333332 0.9677083333333332 0.9625 0.946875 0.9125 0.8958333333333334 0.89375 0.8927083333333333 0.8927083333333333 0.8927083333333333 0.890625,0.8 0.8 0.7972222222222223 0.7972222222222223 0.7972222222222223 0.7972222222222223 0.7805555555555556 0.775 0.7666666666666666 0.7555555555555555 0.7055555555555555 0.675 0.6458333333333333 0.6166666666666667 0.5847222222222221 0.5111111111111111 0.4777777777777778 0.45 0.4222222222222223 0.4041666666666667 0.3833333333333333 0.3666666666666667 0.3527777777777777 0.33611111111111114 0.31666666666666665 0.27222222222222225 0.2597222222222222 0.2597222222222222 0.2597222222222222 0.2597222222222222 0.2597222222222222 0.2597222222222222 0.2597222222222222 0.2597222222222222 0.1930555555555556 0.1902777777777777 0.1902777777777777 0.18888888888888888 0.18611111111111112 0.18333333333333326 0.17361111111111116 0.15833333333333333 0.1333333333333333 0.0986111111111111 0.05277777777777781 0.001388888888888884 0.001388888888888884 0.001388888888888884 0.001388888888888884 0.005555555555555536 0.013888888888888841 0.022222222222222254 0.029166666666666674 0.033333333333333326 0.033333333333333326 0.02777777777777779 0.02777777777777779 0.033333333333333326 0.03749999999999998 0.04166666666666663 0.05277777777777781 0.05833333333333335 0.06111111111111112 0.06666666666666665 0.07638888888888884 0.0902777777777778 0.09444444444444444 0.09444444444444444 0.09444444444444444 0.09444444444444444 0.09444444444444444 0.09999999999999998 0.10833333333333328 0.11250000000000004 0.11250000000000004 0.11250000000000004 0.11250000000000004 0.11250000000000004 0.11388888888888893,99.79999999998836 119.79999999998836 139.79999999998836 159.7999999999884 179.79999999998836 199.79999999998842 219.79999999998842 239.79999999998842 259.7999999999884 279.7999999999884 299.79999999998836 319.79999999998836 339.79999999998836 359.7999999999884 379.7999999999884 399.7999999999884 419.7999999999884 439.7999999999884 459.7999999999884 479.7999999999884 499.7999999999884 519.7999999999884 539.7999999999884 559.7999999999884 579.7999999999884 599.7999999999884 619.7999999999884 639.7999999999884 659.7999999999884 679.7999999999884 699.7999999999884 719.7999999999884 739.7999999999884 759.7999999999884 779.7999999999884 799.7999999999884 819.7999999999884 839.7999999999884 859.7999999999884 879.7999999999884 899.7999999999884 919.7999999999884 939.7999999999884 959.7999999999884 979.7999999999884 999.7999999999884 1019.7999999999884 1039.7999999999884 1059.7999999999884 1079.7999999999884 1099.7999999999884 1119.7999999999884 1139.7999999999886 1159.7999999999886 1179.7999999999886 1199.7999999999886 1219.7999999999886 1239.7999999999886 1259.7999999999886 1279.7999999999886 1299.7999999999886 1319.7999999999886 1339.7999999999886 1359.7999999999886 1379.7999999999884 1399.7999999999884 1419.7999999999884 1439.7999999999884 1459.7999999999884 1479.7999999999884 1499.7999999999884 1519.7999999999884 1539.7999999999884 1559.7999999999884 1579.7999999999884 1599.7999999999884 1619.7999999999884 1639.7999999999884 1659.7999999999884
cb_06,9.0,enc_trial,stim,response,STEM students,988.5999999881025,enc_trial,1.0,9.0,s_s_11_1,student_stem,fold-d,scientific scale,6.0,unique,far,paired,s_s_11_1.jpg,stem,student-b1,STEM students,Fine Arts students,sub-01,1.0,1.0,1.0,1.0,0.4916666666666666 0.4916666666666666 0.4916666666666666 0.49375 0.49375 0.4989583333333333 0.5041666666666667 0.5114583333333333 0.515625 0.5177083333333333 0.5177083333333333 0.515625 0.5104166666666666 0.5041666666666667 0.4979166666666667 0.4833333333333333 0.4729166666666666 0.4604166666666666 0.44895833333333335 0.4354166666666667 0.41458333333333336 0.4052083333333333 0.39375 0.38645833333333335 0.384375 0.3666666666666665 0.35 0.33645833333333336 0.3270833333333333 0.32083333333333336 0.30625 0.29791666666666666 0.2833333333333333 0.26666666666666666 0.2520833333333333 0.20625 0.18125 0.15625 0.134375 0.11770833333333333 0.09791666666666668 0.09583333333333334 0.09375 0.09375,0.8083333333333333 0.7972222222222223 0.7777777777777778 0.7638888888888888 0.75 0.6861111111111111 0.6527777777777778 0.6236111111111111 0.5958333333333333 0.5666666666666667 0.5083333333333333 0.4638888888888889 0.4388888888888889 0.4208333333333333 0.4041666666666667 0.37222222222222223 0.3513888888888889 0.3291666666666667 0.3069444444444445 0.2861111111111111 0.25 0.2388888888888889 0.2277777777777777 0.225 0.2236111111111111 0.2263888888888889 0.2305555555555555 0.2333333333333333 0.2333333333333333 0.2333333333333333 0.22916666666666666 0.225 0.22083333333333333 0.21666666666666667 0.2125 0.19861111111111107 0.19166666666666665 0.18333333333333326 0.17222222222222228 0.1611111111111111 0.1333333333333333 0.12638888888888888 0.12222222222222225 0.11944444444444445,0.0 20.0 40.0 60.0 80.0 100.0 120.0 140.0 160.0 180.0 200.0 220.0 240.0 260.0 280.0 300.0 320.0 340.0 360.0 380.0 400.0 420.0 440.0 460.0 480.0 500.0 520.0 540.0 560.0 580.0 600.0 620.0 640.0 660.0 680.0 700.0 720.0 740.0 760.0 780.0 800.0 820.0 840.0 860.0
cb_06,10.0,enc_trial,stim,response,STEM students,1124.7000000000116,enc_trial,1.0,10.0,s_sh_04_1,student_shared,fold-c,laptop stand,6.0,competing,close,paired,s_sh_04_1.jpg,,student-b1,STEM students,Fine Arts students,sub-01,0.0,0.0,1.0,1.0,0.4729166666666666 0.46875 0.4645833333333334 0.4604166666666666 0.4552083333333333 0.4447916666666665 0.440625 0.4354166666666667 0.43125 0.4270833333333333 0.4208333333333333 0.4166666666666667 0.4166666666666667 0.4166666666666667 0.4166666666666667 0.4135416666666665 0.4125 0.41041666666666665 0.4083333333333333 0.40625 0.4041666666666667 0.4 0.396875 0.3895833333333333 0.37916666666666665 0.3697916666666667 0.365625 0.3625 0.36041666666666666 0.35625 0.33541666666666664 0.3260416666666667 0.3125 0.2916666666666667 0.26875 0.2239583333333333 0.2083333333333333 0.19479166666666667 0.18333333333333326 0.171875 0.16041666666666668 0.15833333333333333 0.15520833333333334 0.15416666666666667 0.15208333333333332 0.14583333333333334 0.14375 0.140625 0.1375 0.13645833333333332 0.13541666666666666 0.134375,0.7444444444444445 0.7236111111111111 0.6958333333333333 0.6638888888888889 0.6305555555555555 0.5666666666666667 0.5333333333333333 0.5041666666666667 0.4777777777777778 0.4527777777777777 0.4055555555555556 0.3694444444444445 0.3472222222222222 0.3208333333333333 0.30000000000000004 0.27222222222222225 0.26388888888888884 0.2597222222222222 0.25416666666666665 0.25277777777777777 0.2486111111111111 0.2458333333333333 0.2444444444444445 0.2416666666666667 0.23750000000000004 0.2305555555555555 0.2263888888888889 0.2222222222222222 0.21944444444444444 0.21666666666666667 0.20416666666666672 0.2 0.2 0.2 0.2 0.1944444444444444 0.1902777777777777 0.18472222222222226 0.1777777777777778 0.17083333333333328 0.15833333333333333 0.15694444444444444 0.1513888888888889 0.15000000000000002 0.14722222222222225 0.1430555555555556 0.14166666666666672 0.13888888888888884 0.13611111111111107 0.1347222222222222 0.1333333333333333 0.13055555555555556,0.0 20.0 40.0 60.0 80.0 100.0 120.0 140.0 160.0 180.0 200.0 220.0 240.0 260.0 280.0 300.0 320.0 340.0 360.0 380.0 400.0 420.0 440.0 460.0 480.0 500.0 520.0 540.0 560.0 580.0 600.0 620.0 640.0 660.0 680.0 700.0 720.0 740.0 760.0 780.0 800.0 820.0 840.0 860.0 880.0 900.0 920.0 940.0 960.0 980.0 1000.0 1020.0
cb_06,11.0,enc_trial,stim,response,Fine Arts students,1301.9000000059605,enc_trial,1.0,11.0,s_sh_09_2,student_shared,fold-c,paper clips,6.0,competing,close,paired,s_sh_09_2.jpg,,student-b1,STEM students,Fine Arts students,sub-01,1.0,1.0,1.0,1.0,0.4645833333333334 0.4635416666666667 0.4625 0.4625 0.4625 0.4625 0.4625 0.4635416666666667 0.465625 0.4666666666666667 0.4708333333333333 0.4739583333333333 0.4760416666666666 0.4770833333333334 0.4770833333333334 0.4770833333333334 0.4770833333333334 0.4770833333333334 0.475 0.4708333333333333 0.4572916666666666 0.4447916666666665 0.43125 0.41875 0.396875 0.36354166666666665 0.3541666666666667 0.34479166666666666 0.3395833333333333 0.3375 0.33541666666666664 0.340625 0.35625 0.3885416666666667 0.4364583333333333 0.58125 0.64375 0.70625 0.7770833333333333 0.8479166666666667 0.9520833333333332 0.9708333333333332 0.9770833333333332 0.978125 0.978125 0.978125 0.978125 0.978125 0.978125 0.98125 0.9854166666666668 0.9854166666666668 0.9854166666666668 0.9854166666666668 0.9708333333333332 0.9270833333333334 0.9145833333333332 0.9083333333333332 0.9052083333333332 0.9041666666666668,0.6861111111111111 0.6777777777777778 0.6625 0.6444444444444444 0.6263888888888889 0.5777777777777777 0.5583333333333333 0.5375 0.5138888888888888 0.4986111111111111 0.475 0.4569444444444445 0.43472222222222223 0.4138888888888889 0.3888888888888888 0.34444444444444444 0.3319444444444445 0.31805555555555554 0.3041666666666667 0.29166666666666663 0.2666666666666667 0.25277777777777777 0.23750000000000004 0.225 0.2083333333333333 0.1958333333333333 0.18888888888888888 0.1791666666666667 0.17222222222222228 0.16666666666666666 0.15416666666666667 0.14722222222222225 0.13888888888888884 0.12916666666666665 0.12361111111111113 0.12361111111111113 0.12361111111111113 0.12361111111111113 0.12361111111111113 0.125 0.15555555555555556 0.1694444444444444 0.17500000000000004 0.1777777777777778 0.1777777777777778 0.1791666666666667 0.1791666666666667 0.1791666666666667 0.1805555555555556 0.1805555555555556 0.1805555555555556 0.1805555555555556 0.1805555555555556 0.1805555555555556 0.1791666666666667 0.1611111111111111 0.15555555555555556 0.1527777777777778 0.15000000000000002 0.15000000000000002,0.0 20.0 40.0 60.0 80.0 100.0 120.0 140.0 160.0 180.0 200.0 220.0 240.0 260.0 280.0 300.0 320.0 340.0 360.0 380.0 400.0 420.0 440.0 460.0 480.0 500.0 520.0 540.0 560.0 580.0 600.0 620.0 640.0 660.0 680.0 700.0 720.0 740.0 760.0 780.0 800.0 820.0 840.0 860.0 880.0 900.0 920.0 940.0 960.0 980.0 1000.0 1020.0 1040.0 1060.0 1080.0 1100.0 1120.0 1140.0 1160.0 1180.0
cb_06,12.0,enc_trial,stim,response,Fine Arts students,1353.699999988079,enc_trial,1.0,12.0,s_a_09_1,student_art,fold-e,picture frame,6.0,unique,close,paired,s_a_09_1.jpg,art,student-b1,STEM students,Fine Arts students,sub-01,1.0,1.0,1.0,1.0,0.50625 0.50625 0.50625 0.50625 0.50625 0.50625 0.4666666666666667 0.459375 0.45625 0.4510416666666667 0.4479166666666667 0.44583333333333336 0.44583333333333336 0.44583333333333336 0.44583333333333336 0.44583333333333336 0.44583333333333336 0.44583333333333336 0.44583333333333336 0.44583333333333336 0.44375 0.44166666666666665 0.440625 0.4395833333333333 0.4395833333333333 0.43854166666666666 0.44375 0.453125 0.4645833333333334 0.471875 0.4958333333333334 0.5125 0.53125 0.5583333333333333 0.5875 0.6416666666666667 0.671875 0.7104166666666667 0.7354166666666667 0.74375 0.7354166666666667 0.7145833333333333 0.68125 0.640625 0.6041666666666666 0.5604166666666667 0.5572916666666666 0.5572916666666666 0.5666666666666667 0.5885416666666666 0.6895833333333333 0.73125 0.7666666666666667 0.7895833333333333 0.8020833333333334 0.8083333333333333 0.8104166666666667 0.815625 0.8291666666666667 0.8489583333333334 0.8833333333333333 0.8854166666666666 0.8864583333333333 0.8864583333333333 0.8854166666666666 0.8822916666666667 0.8822916666666667 0.88125,0.8263888888888888 0.8263888888888888 0.8263888888888888 0.8263888888888888 0.8263888888888888 0.8263888888888888 0.725 0.7041666666666666 0.6847222222222222 0.6555555555555556 0.6208333333333333 0.6138888888888889 0.6125 0.6125 0.6125 0.6125 0.6125 0.6125 0.6111111111111112 0.6097222222222223 0.5944444444444444 0.5847222222222221 0.5805555555555555 0.5722222222222222 0.5652777777777778 0.5402777777777779 0.5194444444444444 0.4916666666666667 0.4666666666666667 0.4444444444444444 0.3986111111111112 0.3861111111111111 0.375 0.3666666666666667 0.3583333333333333 0.3430555555555556 0.33472222222222225 0.3236111111111111 0.3194444444444444 0.31805555555555554 0.3194444444444444 0.325 0.3305555555555556 0.3305555555555556 0.3305555555555556 0.3208333333333333 0.3125 0.3027777777777778 0.2861111111111111 0.2694444444444445 0.2236111111111111 0.2125 0.20277777777777767 0.1972222222222222 0.1930555555555556 0.18888888888888888 0.18888888888888888 0.18611111111111112 0.1777777777777778 0.17083333333333328 0.1611111111111111 0.1611111111111111 0.1611111111111111 0.1611111111111111 0.1611111111111111 0.1611111111111111 0.1611111111111111 0.1597222222222222,0.0 20.0 40.0 60.0 80.0 100.0 120.0 140.0 160.0 180.0 200.0 220.0 240.0 260.0 280.0 300.0 320.0 340.0 360.0 380.0 400.0 420.0 440.0 460.0 480.0 500.0 520.0 540.0 560.0 580.0 600.0 620.0 640.0 660.0 680.0 700.0 720.0 740.0 760.0 780.0 800.0 820.0 840.0 860.0 880.0 900.0 920.0 940.0 960.0 980.0 1000.0 1020.0 1040.0 1060.0 1080.0 1100.0 1120.0 1140.0 1160.0 1180.0 1200.0 1220.0 1240.0 1260.0 1280.0 1300.0 1320.0 1340.0
cb_06,13.0,enc_trial,stim,response,STEM students,1202.5999999881026,enc_trial,1.0,13.0,s_s_04_1,student_stem,fold-a-single,bunsen burner,6.0,unique,,single,s_s_04_1.jpg,stem,student-b1,STEM students,Fine Arts students,sub-01,1.0,,1.0,,0.4916666666666666 0.4916666666666666 0.490625 0.490625 0.490625 0.4885416666666666 0.4864583333333333 0.4854166666666666 0.4854166666666666 0.4833333333333333 0.48125 0.4770833333333334 0.475 0.4729166666666666 0.4708333333333333 0.465625 0.4645833333333334 0.4625 0.4614583333333334 0.4614583333333334 0.465625 0.4729166666666666 0.475 0.4770833333333334 0.4770833333333334 0.4760416666666666 0.4739583333333333 0.4708333333333333 0.4625 0.4479166666666667 0.4135416666666665 0.39479166666666665 0.37916666666666665 0.365625 0.36041666666666666 0.3583333333333333 0.3583333333333333 0.3572916666666667 0.35625 0.3541666666666667 0.35 0.3458333333333333 0.340625 0.33541666666666664 0.3239583333333333 0.28958333333333336 0.2708333333333333 0.25416666666666665 0.2364583333333333 0.221875 0.20104166666666667 0.19791666666666666 0.18958333333333333 0.18333333333333326 0.17708333333333334 0.165625 0.16354166666666667 0.1625,0.6861111111111111 0.675 0.6638888888888889 0.6555555555555556 0.6472222222222221 0.6277777777777778 0.6222222222222222 0.6152777777777778 0.6097222222222223 0.6027777777777779 0.5916666666666667 0.5861111111111111 0.5819444444444444 0.5763888888888888 0.5708333333333333 0.5583333333333333 0.5527777777777778 0.5444444444444445 0.5388888888888889 0.5319444444444444 0.5083333333333333 0.4888888888888889 0.4777777777777778 0.4694444444444445 0.4611111111111112 0.4430555555555555 0.43333333333333335 0.4263888888888889 0.4166666666666666 0.4027777777777778 0.3694444444444445 0.35 0.3291666666666667 0.3027777777777778 0.2861111111111111 0.2652777777777777 0.2597222222222222 0.25416666666666665 0.25277777777777777 0.25 0.2458333333333333 0.2402777777777778 0.2361111111111112 0.2305555555555555 0.2236111111111111 0.2055555555555556 0.1972222222222222 0.18888888888888888 0.1805555555555556 0.17222222222222228 0.15555555555555556 0.1527777777777778 0.14722222222222225 0.1444444444444445 0.14166666666666672 0.13888888888888884 0.13888888888888884 0.13888888888888884,0.0 20.0 40.0 60.0 80.0 100.0 120.0 140.0 160.0 180.0 200.0 220.0 240.0 260.0 280.0 300.0 320.0 340.0 360.0 380.0 400.0 420.0 440.0 460.0 480.0 500.0 520.0 540.0 560.0 580.0 600.0 620.0 640.0 660.0 680.0 700.0 720.0 740.0 760.0 780.0 800.0 820.0 840.0 860.0 880.0 900.0 920.0 940.0 960.0 980.0 1000.0 1020.0 1040.0 1060.0 1080.0 1100.0 1120.0 1140.0
cb_06,14.0,enc_trial,stim,response,Fine Arts students,1378.8999999880907,enc_trial,1.0,14.0,s_a_03_1,student_art,fold-e,palette,6.0,unique,close,paired,s_a_03_1.jpg,art,student-b1,STEM students,Fine Arts students,sub-01,1.0,1.0,1.0,1.0,0.46875 0.4541666666666666 0.43333333333333335 0.4041666666666667 0.37604166666666666 0.328125 0.309375 0.2916666666666667 0.2760416666666667 0.25729166666666664 0.24375 0.2395833333333333 0.2375 0.23541666666666666 0.234375 0.2333333333333333 0.2333333333333333 0.2333333333333333 0.2333333333333333 0.2333333333333333 0.2333333333333333 0.2333333333333333 0.234375 0.234375 0.23541666666666666 0.23541666666666666 0.23541666666666666 0.23541666666666666 0.23541666666666666 0.23541666666666666 0.2375 0.2385416666666667 0.240625 0.2489583333333333 0.2677083333333333 0.3375 0.38125 0.41875 0.44375 0.459375 0.5125 0.5479166666666667 0.5916666666666667 0.6375 0.6708333333333333 0.7197916666666667 0.740625 0.7541666666666667 0.7604166666666666 0.7604166666666666 0.7614583333333333 0.7625 0.7625 0.7645833333333333 0.765625 0.7729166666666667 0.7770833333333333 0.7822916666666667 0.79375 0.8041666666666667 0.8166666666666667 0.8197916666666667 0.8208333333333333 0.8229166666666666 0.8229166666666666 0.825 0.8333333333333334 0.84375 0.8583333333333333 0.86875,0.7388888888888889 0.7069444444444444 0.6805555555555556 0.6555555555555556 0.6319444444444444 0.5805555555555555 0.55 0.5180555555555555 0.4847222222222223 0.43333333333333335 0.3694444444444445 0.3458333333333333 0.325 0.3083333333333333 0.30000000000000004 0.2972222222222223 0.2972222222222223 0.2972222222222223 0.2972222222222223 0.2972222222222223 0.2958333333333333 0.2958333333333333 0.2958333333333333 0.2958333333333333 0.2944444444444444 0.2902777777777777 0.2875 0.2805555555555556 0.275 0.2694444444444445 0.25555555555555554 0.2458333333333333 0.2402777777777778 0.2347222222222223 0.22916666666666666 0.20972222222222225 0.1972222222222222 0.1902777777777777 0.1875 0.18472222222222226 0.17222222222222228 0.1611111111111111 0.15000000000000002 0.13749999999999996 0.13055555555555556 0.11805555555555558 0.1166666666666667 0.1166666666666667 0.1166666666666667 0.1166666666666667 0.11805555555555558 0.11944444444444445 0.11944444444444445 0.12083333333333335 0.12222222222222225 0.13055555555555556 0.1333333333333333 0.13749999999999996 0.1430555555555556 0.15000000000000002 0.1680555555555555 0.17361111111111116 0.1777777777777778 0.1791666666666667 0.1805555555555556 0.1805555555555556 0.1805555555555556 0.1805555555555556 0.1805555555555556 0.1805555555555556,0.0 20.0 40.0 60.0 80.0 100.0 120.0 140.0 160.0 180.0 200.0 220.0 240.0 260.0 280.0 300.0 320.0 340.0 360.0 380.0 400.0 420.0 440.0 460.0 480.0 500.0 520.0 540.0 560.0 580.0 600.0 620.0 640.0 660.0 680.0 700.0 720.0 740.0 760.0 780.0 800.0 820.0 840.0 860.0 880.0 900.0 920.0 940.0 960.0 980.0 1000.0 1020.0 1040.0 1060.0 1080.0 1100.0 1120.0 1140.0 1160.0 1180.0 1200.0 1220.0 1240.0 1260.0 1280.0 1300.0 1320.0 1340.0 1360.0 1380.0
cb_06,15.0,enc_trial,stim,response,STEM students,1074.599999982107,enc_trial,1.0,15.0,s_sh_14_1,student_shared,fold-b,printer,6.0,competing,far,paired,s_sh_14_1.jpg,,student-b1,STEM students,Fine Arts students,sub-01,1.0,1.0,0.0,0.0,0.5041666666666667 0.5041666666666667 0.5041666666666667 0.5041666666666667 0.5041666666666667 0.5 0.4916666666666666 0.4822916666666667 0.4739583333333333 0.46875 0.4583333333333333 0.4541666666666666 0.45 0.44583333333333336 0.440625 0.43333333333333335 0.4291666666666665 0.425 0.42291666666666666 0.421875 0.42604166666666665 0.43125 0.4354166666666667 0.4375 0.4375 0.4291666666666665 0.4208333333333333 0.41041666666666665 0.39479166666666665 0.3729166666666667 0.3145833333333333 0.2916666666666667 0.27291666666666664 0.25833333333333336 0.246875 0.2322916666666667 0.22916666666666666 0.2260416666666667 0.22291666666666668 0.21979166666666666 0.20729166666666668 0.20104166666666667 0.19479166666666667 0.19375 0.18958333333333333 0.17291666666666666 0.16145833333333334 0.15104166666666666 0.14583333333333334 0.14270833333333333 0.14166666666666666,0.8083333333333333 0.8069444444444445 0.8041666666666667 0.8 0.7958333333333334 0.7652777777777777 0.7402777777777778 0.7055555555555555 0.6736111111111112 0.6472222222222221 0.5888888888888889 0.5694444444444444 0.5527777777777778 0.5375 0.5222222222222221 0.4916666666666667 0.4722222222222222 0.4486111111111111 0.425 0.3972222222222223 0.30972222222222223 0.2805555555555556 0.26388888888888884 0.2513888888888889 0.2416666666666667 0.2263888888888889 0.2222222222222222 0.2152777777777778 0.2069444444444445 0.20138888888888884 0.17638888888888893 0.16388888888888886 0.15416666666666667 0.14166666666666672 0.13055555555555556 0.11388888888888893 0.11111111111111116 0.1069444444444444 0.10555555555555553 0.10555555555555553 0.10555555555555553 0.1069444444444444 0.10833333333333328 0.10833333333333328 0.10972222222222228 0.11388888888888893 0.1166666666666667 0.11944444444444445 0.12222222222222225 0.12222222222222225 0.12222222222222225,0.0 20.0 40.0 60.0 80.0 100.0 120.0 140.0 160.0 180.0 200.0 220.0 240.0 260.0 280.0 300.0 320.0 340.0 360.0 380.0 400.0 420.0 440.0 460.0 480.0 500.0 520.0 540.0 560.0 580.0 600.0 620.0 640.0 660.0 680.0 700.0 720.0 740.0 760.0 780.0 800.0 820.0 840.0 860.0 880.0 900.0 920.0 940.0 960.0 980.0 1000.0
cb_06,16.0,enc_trial,stim,response,STEM students,1095.9999999821302,enc_trial,1.0,16.0,s_sh_04_2,student_shared,fold-c,laptop stand,6.0,competing,close,paired,s_sh_04_2.jpg,,student-b1,STEM students,Fine Arts students,sub-01,0.0,0.0,1.0,1.0,0.5 0.5020833333333333 0.503125 0.5041666666666667 0.5052083333333334 0.5083333333333333 0.5083333333333333 0.5145833333333333 0.5166666666666667 0.51875 0.51875 0.51875 0.51875 0.51875 0.5177083333333333 0.5145833333333333 0.5135416666666667 0.5135416666666667 0.5135416666666667 0.5135416666666667 0.51875 0.5208333333333334 0.528125 0.53125 0.5322916666666667 0.5270833333333333 0.5125 0.4916666666666666 0.45 0.4354166666666667 0.4354166666666667 0.4354166666666667 0.4354166666666667 0.4354166666666667 0.4354166666666667 0.4354166666666667 0.4354166666666667 0.4354166666666667 0.4354166666666667 0.4354166666666667 0.17291666666666666 0.171875 0.171875 0.17083333333333334 0.18125 0.2083333333333333 0.2083333333333333 0.20520833333333333 0.18229166666666666 0.1625 0.14166666666666666 0.140625,0.7722222222222223 0.7666666666666666 0.7597222222222222 0.7527777777777778 0.7444444444444445 0.7194444444444444 0.6972222222222222 0.6597222222222222 0.6430555555555555 0.6305555555555555 0.6125 0.5986111111111111 0.5875 0.5777777777777777 0.5694444444444444 0.5444444444444445 0.5111111111111111 0.4972222222222222 0.4527777777777777 0.4208333333333333 0.3666666666666667 0.3430555555555556 0.3222222222222222 0.3055555555555556 0.30000000000000004 0.2888888888888889 0.2847222222222222 0.2791666666666667 0.2666666666666667 0.2597222222222222 0.2597222222222222 0.2597222222222222 0.2597222222222222 0.2597222222222222 0.2597222222222222 0.2597222222222222 0.2597222222222222 0.2597222222222222 0.2597222222222222 0.2597222222222222 0.12222222222222225 0.11944444444444445 0.11944444444444445 0.11388888888888893 0.1069444444444444 0.0986111111111111 0.0986111111111111 0.09999999999999998 0.10555555555555553 0.11111111111111116 0.1166666666666667 0.1166666666666667,0.0 20.0 40.0 60.0 80.0 100.0 120.0 140.0 160.0 180.0 200.0 220.0 240.0 260.0 280.0 300.0 320.0 340.0 360.0 380.0 400.0 420.0 440.0 460.0 480.0 500.0 520.0 540.0 560.0 580.0 600.0 620.0 640.0 660.0 680.0 700.0 720.0 740.0 760.0 780.0 800.0 820.0 840.0 860.0 880.0 900.0 920.0 940.0 960.0 980.0 1000.0 1020.0
cb_06,17.0,enc_trial,stim,response,Fine Arts students,1145.7999999821186,enc_trial,1.0,17.0,s_a_15_2,student_art,fold-d,drum kit,6.0,unique,far,paired,s_a_15_2.jpg,art,student-b1,STEM students,Fine Arts students,sub-01,1.0,1.0,1.0,1.0,0.49375 0.4947916666666667 0.4979166666666667 0.5010416666666667 0.5041666666666667 0.509375 0.5104166666666666 0.5125 0.5125 0.5125 0.5125 0.5125 0.5125 0.5125 0.5125 0.5114583333333333 0.5083333333333333 0.5020833333333333 0.4875 0.4833333333333333 0.4635416666666667 0.459375 0.4583333333333333 0.4583333333333333 0.4604166666666666 0.4572916666666666 0.4541666666666666 0.4520833333333333 0.4520833333333333 0.4625 0.4979166666666667 0.5385416666666667 0.596875 0.6583333333333333 0.7020833333333333 0.7364583333333333 0.7385416666666667 0.740625 0.740625 0.740625 0.74375 0.7458333333333333 0.7510416666666667 0.7604166666666666 0.7729166666666667 0.7947916666666667 0.803125 0.8104166666666667 0.815625 0.821875 0.8625 0.8770833333333333 0.8854166666666666 0.8864583333333333 0.8864583333333333 0.8864583333333333 0.8864583333333333 0.8875,0.8222222222222222 0.8125 0.8041666666666667 0.7916666666666666 0.7805555555555556 0.7555555555555555 0.7444444444444445 0.7277777777777779 0.7194444444444444 0.7 0.6722222222222223 0.6569444444444444 0.6388888888888888 0.6222222222222222 0.6041666666666667 0.5805555555555555 0.5722222222222222 0.5638888888888889 0.55 0.5444444444444445 0.4958333333333334 0.4722222222222222 0.4527777777777777 0.4319444444444445 0.4166666666666666 0.3847222222222222 0.3680555555555556 0.3486111111111111 0.3277777777777777 0.2972222222222223 0.2625 0.2416666666666667 0.2236111111111111 0.2083333333333333 0.1958333333333333 0.1875 0.1875 0.1875 0.18888888888888888 0.18888888888888888 0.19166666666666665 0.19166666666666665 0.19166666666666665 0.19166666666666665 0.19166666666666665 0.19166666666666665 0.19166666666666665 0.19166666666666665 0.19166666666666665 0.19166666666666665 0.1805555555555556 0.1777777777777778 0.17500000000000004 0.17500000000000004 0.17500000000000004 0.17500000000000004 0.17500000000000004 0.17500000000000004,0.0 20.0 40.0 60.0 80.0 100.0 120.0 140.0 160.0 180.0 200.0 220.0 240.0 260.0 280.0 300.0 320.0 340.0 360.0 380.0 400.0 420.0 440.0 460.0 480.0 500.0 520.0 540.0 560.0 580.0 600.0 620.0 640.0 660.0 680.0 700.0 720.0 740.0 760.0 780.0 800.0 820.0 840.0 860.0 880.0 900.0 920.0 940.0 960.0 980.0 1000.0 1020.0 1040.0 1060.0 1080.0 1100.0 1120.0 1140.0
cb_06,18.0,enc_trial,stim,response,STEM students,1051.5999999881024,enc_trial,1.0,18.0,s_s_20_2,student_stem,fold-d,dna model,6.0,unique,far,paired,s_s_20_2.jpg,stem,student-b1,STEM students,Fine Arts students,sub-01,1.0,1.0,1.0,1.0,0.4541666666666666 0.4520833333333333 0.4520833333333333 0.45 0.44895833333333335 0.4447916666666665 0.4447916666666665 0.4447916666666665 0.4447916666666665 0.44375 0.44375 0.44375 0.44375 0.44375 0.44375 0.44375 0.44375 0.44375 0.44375 0.44375 0.4354166666666667 0.4135416666666665 0.384375 0.3572916666666667 0.3333333333333333 0.3333333333333333 0.3333333333333333 0.3333333333333333 0.3333333333333333 0.3333333333333333 0.3333333333333333 0.3333333333333333 0.3333333333333333 0.3333333333333333 0.2708333333333333 0.25625 0.25 0.2416666666666667 0.23541666666666666 0.2302083333333333 0.21875 0.21458333333333326 0.21145833333333333 0.2 0.18854166666666666 0.165625 0.15833333333333333 0.15416666666666667 0.15208333333333332 0.15 0.14895833333333333,0.5430555555555556 0.5361111111111111 0.5361111111111111 0.4986111111111111 0.4861111111111112 0.4611111111111112 0.4541666666666667 0.4472222222222222 0.44166666666666665 0.4361111111111111 0.4305555555555556 0.4291666666666667 0.4291666666666667 0.4291666666666667 0.4291666666666667 0.4277777777777778 0.4277777777777778 0.4277777777777778 0.4277777777777778 0.425 0.4236111111111112 0.4236111111111112 0.4236111111111112 0.4236111111111112 0.4194444444444444 0.4194444444444444 0.4194444444444444 0.4194444444444444 0.4194444444444444 0.4194444444444444 0.4194444444444444 0.4194444444444444 0.4194444444444444 0.4194444444444444 0.2875 0.2763888888888889 0.27083333333333337 0.26388888888888884 0.25277777777777777 0.2444444444444445 0.21944444444444444 0.2083333333333333 0.20416666666666672 0.18611111111111112 0.17361111111111116 0.15000000000000002 0.1430555555555556 0.13611111111111107 0.1333333333333333 0.13055555555555556 0.12916666666666665,0.0 20.0 40.0 60.0 80.0 100.0 120.0 140.0 160.0 180.0 200.0 220.0 240.0 260.0 280.0 300.0 320.0 340.0 360.0 380.0 400.0 420.0 440.0 460.0 480.0 500.0 520.0 540.0 560.0 580.0 600.0 620.0 640.0 660.0 680.0 700.0 720.0 740.0 760.0 780.0 800.0 820.0 840.0 860.0 880.0 900.0 920.0 940.0 960.0 980.0 1000.0
cb_06,19.0,enc_trial,stim,response,STEM students,1129.4999999880674,enc_trial,1.0,19.0,s_a_06_1,student_art,fold-d,pastels,6.0,unique,far,paired,s_a_06_1.jpg,art,student-b1,STEM students,Fine Arts students,sub-01,0.0,0.0,1.0,1.0,0.5083333333333333 0.5104166666666666 0.5145833333333333 0.51875 0.5208333333333334 0.5229166666666667 0.5208333333333334 0.515625 0.5041666666666667 0.4979166666666667 0.4854166666666666 0.48125 0.478125 0.4729166666666666 0.4697916666666666 0.4635416666666667 0.4604166666666666 0.45625 0.4520833333333333 0.4479166666666667 0.4375 0.43125 0.42291666666666666 0.4125 0.4125 0.40625 0.3729166666666667 0.3729166666666667 0.3729166666666667 0.3729166666666667 0.3729166666666667 0.3729166666666667 0.3729166666666667 0.3729166666666667 0.3729166666666667 0.3729166666666667 0.3729166666666667 0.3729166666666667 0.3729166666666667 0.3729166666666667 0.3729166666666667 0.3729166666666667 0.3729166666666667 0.3729166666666667 0.3729166666666667 0.3729166666666667 0.3729166666666667 0.3729166666666667 0.3729166666666667 0.159375,0.8138888888888889 0.8027777777777778 0.7888888888888889 0.7722222222222223 0.7555555555555555 0.7152777777777778 0.6902777777777778 0.6666666666666667 0.6305555555555555 0.6055555555555556 0.5666666666666667 0.55 0.5375 0.525 0.5138888888888888 0.4944444444444445 0.4805555555555555 0.4694444444444445 0.4541666666666667 0.43472222222222223 0.3986111111111112 0.3819444444444444 0.3652777777777778 0.3513888888888889 0.3513888888888889 0.3430555555555556 0.29166666666666663 0.29166666666666663 0.29166666666666663 0.29166666666666663 0.29166666666666663 0.29166666666666663 0.29166666666666663 0.29166666666666663 0.29166666666666663 0.29166666666666663 0.29166666666666663 0.29166666666666663 0.29166666666666663 0.29166666666666663 0.29166666666666663 0.29166666666666663 0.29166666666666663 0.29166666666666663 0.29166666666666663 0.29166666666666663 0.29166666666666663 0.29166666666666663 0.29166666666666663 0.14166666666666672,0.0 20.0 40.0 60.0 80.0 100.0 120.0 140.0 160.0 180.0 200.0 220.0 240.0 260.0 280.0 300.0 320.0 340.0 360.0 380.0 400.0 420.0 440.0 460.0 480.0 500.0 520.0 540.0 560.0 580.0 600.0 620.0 640.0 660.0 680.0 700.0 720.0 740.0 760.0 780.0 800.0 820.0 840.0 860.0 880.0 900.0 920.0 940.0 960.0 980.0
cb_06,20.0,enc_trial,stim,response,Fine Arts students,1123.4999999940628,enc_trial,1.0,20.0,s_a_03_2,student_art,fold-e,palette,6.0,unique,close,paired,s_a_03_2.jpg,art,student-b1,STEM students,Fine Arts students,sub-01,1.0,1.0,1.0,1.0,0.50625 0.5041666666666667 0.5010416666666667 0.4979166666666667 0.4947916666666667 0.4875 0.4833333333333333 0.4791666666666667 0.4760416666666666 0.4739583333333333 0.471875 0.471875 0.471875 0.471875 0.471875 0.4708333333333333 0.4708333333333333 0.4708333333333333 0.46875 0.4666666666666667 0.4572916666666666 0.4395833333333333 0.421875 0.403125 0.38333333333333336 0.3552083333333333 0.35 0.34791666666666665 0.3541666666666667 0.3770833333333333 0.4802083333333334 0.5833333333333334 0.6145833333333334 0.665625 0.6833333333333333 0.6916666666666667 0.69375 0.7 0.7145833333333333 0.7375 0.7916666666666666 0.7916666666666666 0.7916666666666666 0.7916666666666666 0.7916666666666666 0.7916666666666666 0.7916666666666666 0.7916666666666666 0.7916666666666666 0.85 0.8489583333333334 0.8489583333333334 0.85 0.8541666666666666 0.859375 0.8625,0.7569444444444444 0.7472222222222222 0.7222222222222222 0.7027777777777777 0.6833333333333333 0.6333333333333333 0.6083333333333334 0.5833333333333333 0.5597222222222222 0.5416666666666667 0.5111111111111111 0.4930555555555556 0.4847222222222223 0.4763888888888889 0.4708333333333333 0.4611111111111112 0.4583333333333334 0.4569444444444445 0.4527777777777777 0.45 0.44027777777777777 0.4291666666666667 0.4208333333333333 0.4097222222222222 0.4 0.37777777777777777 0.3666666666666667 0.3513888888888889 0.3277777777777777 0.30000000000000004 0.23750000000000004 0.20416666666666672 0.1944444444444444 0.1805555555555556 0.1777777777777778 0.1791666666666667 0.18194444444444446 0.18333333333333326 0.18611111111111112 0.18611111111111112 0.18611111111111112 0.18611111111111112 0.18611111111111112 0.18611111111111112 0.18611111111111112 0.18611111111111112 0.18611111111111112 0.18611111111111112 0.18611111111111112 0.16666666666666666 0.16249999999999998 0.15833333333333333 0.15416666666666667 0.14861111111111114 0.14722222222222225 0.14583333333333334,0.0 20.0 40.0 60.0 80.0 100.0 120.0 140.0 160.0 180.0 200.0 220.0 240.0 260.0 280.0 300.0 320.0 340.0 360.0 380.0 400.0 420.0 440.0 460.0 480.0 500.0 520.0 540.0 560.0 580.0 600.0 620.0 640.0 660.0 680.0 700.0 720.0 740.0 760.0 780.0 800.0 820.0 840.0 860.0 880.0 900.0 920.0 940.0 960.0 980.0 1000.0 1020.0 1040.0 1060.0 1080.0 1100.0
cb_06,21.0,enc_trial,stim,response,STEM students,1294.4000000000233,enc_trial,1.0,21.0,s_s_17_2,student_stem,fold-e,ring stand,6.0,unique,close,paired,s_s_17_2.jpg,stem,student-b1,STEM students,Fine Arts students,sub-01,1.0,1.0,1.0,1.0,0.5135416666666667 0.5145833333333333 0.5145833333333333 0.5145833333333333 0.515625 0.5166666666666667 0.5166666666666667 0.5177083333333333 0.51875 0.51875 0.5197916666666667 0.5197916666666667 0.5197916666666667 0.5197916666666667 0.5197916666666667 0.51875 0.5177083333333333 0.5145833333333333 0.5104166666666666 0.5041666666666667 0.49375 0.4875 0.4833333333333333 0.4770833333333334 0.4708333333333333 0.45625 0.4395833333333333 0.428125 0.415625 0.4 0.375 0.3645833333333333 0.3541666666666667 0.3458333333333333 0.3375 0.3260416666666667 0.32083333333333336 0.3125 0.2989583333333333 0.284375 0.2552083333333333 0.24375 0.2333333333333333 0.21875 0.2083333333333333 0.19791666666666666 0.196875 0.19583333333333333 0.19583333333333333 0.19583333333333333 0.19479166666666667 0.19375 0.1927083333333333 0.18958333333333333 0.18541666666666667 0.17604166666666668 0.17083333333333334 0.16875 0.16770833333333332 0.16666666666666666 0.16666666666666666 0.16458333333333333,0.8 0.7972222222222223 0.7972222222222223 0.7944444444444445 0.7930555555555556 0.7861111111111111 0.7805555555555556 0.7763888888888889 0.7722222222222223 0.7680555555555555 0.7625 0.7611111111111111 0.7583333333333333 0.7555555555555555 0.75 0.7194444444444444 0.7041666666666666 0.6847222222222222 0.6652777777777779 0.6458333333333333 0.6083333333333334 0.5902777777777778 0.5722222222222222 0.5541666666666667 0.5347222222222222 0.4875 0.45 0.4263888888888889 0.4 0.375 0.3319444444444445 0.3111111111111111 0.2944444444444444 0.2791666666666667 0.2666666666666667 0.25277777777777777 0.2486111111111111 0.24722222222222226 0.2416666666666667 0.2388888888888889 0.225 0.2180555555555556 0.20972222222222225 0.19861111111111107 0.18888888888888888 0.17361111111111116 0.1694444444444444 0.16666666666666666 0.16249999999999998 0.1611111111111111 0.15694444444444444 0.15416666666666667 0.1527777777777778 0.1513888888888889 0.15000000000000002 0.1444444444444445 0.14166666666666672 0.14166666666666672 0.14166666666666672 0.14166666666666672 0.14166666666666672 0.14027777777777772,0.0 20.0 40.0 60.0 80.0 100.0 120.0 140.0 160.0 180.0 200.0 220.0 240.0 260.0 280.0 300.0 320.0 340.0 360.0 380.0 400.0 420.0 440.0 460.0 480.0 500.0 520.0 540.0 560.0 580.0 600.0 620.0 640.0 660.0 680.0 700.0 720.0 740.0 760.0 780.0 800.0 820.0 840.0 860.0 880.0 900.0 920.0 940.0 960.0 980.0 1000.0 1020.0 1040.0 1060.0 1080.0 1100.0 1120.0 1140.0 1160.0 1180.0 1200.0 1220.0
cb_06,22.0,enc_trial,stim,response,Fine Arts students,1218.3999999940281,enc_trial,1.0,22.0,s_sh_24_2,student_shared,fold-b,desk organizer,6.0,competing,far,paired,s_sh_24_2.jpg,,student-b1,STEM students,Fine Arts students,sub-01,1.0,1.0,0.0,0.0,0.5104166666666666 0.5083333333333333 0.50625 0.5020833333333333 0.4989583333333333 0.49375 0.4885416666666666 0.4854166666666666 0.48125 0.4770833333333334 0.4708333333333333 0.4645833333333334 0.4614583333333334 0.459375 0.4572916666666666 0.4541666666666666 0.4520833333333333 0.45 0.44583333333333336 0.44375 0.43854166666666666 0.43333333333333335 0.4270833333333333 0.4197916666666667 0.4114583333333333 0.39895833333333336 0.39479166666666665 0.3895833333333333 0.3854166666666667 0.37916666666666665 0.36041666666666666 0.346875 0.3395833333333333 0.3333333333333333 0.3239583333333333 0.2958333333333333 0.2833333333333333 0.2760416666666667 0.275 0.2770833333333333 0.34375 0.4270833333333333 0.5364583333333334 0.6333333333333333 0.7177083333333333 0.821875 0.834375 0.8375 0.8385416666666666 0.8385416666666666 0.8416666666666667 0.8458333333333333 0.85 0.8604166666666667 0.8739583333333333 0.89375 0.8958333333333334 0.8958333333333334,0.7694444444444444 0.7527777777777778 0.7333333333333334 0.7166666666666667 0.6986111111111111 0.6652777777777779 0.65 0.6347222222222222 0.6222222222222222 0.6111111111111112 0.5888888888888889 0.5638888888888889 0.5486111111111112 0.5347222222222222 0.5194444444444444 0.4986111111111111 0.4888888888888889 0.4805555555555555 0.4680555555555556 0.4583333333333334 0.4388888888888889 0.4208333333333333 0.4083333333333333 0.3916666666666667 0.375 0.3416666666666667 0.32638888888888884 0.3111111111111111 0.2986111111111112 0.2888888888888889 0.27222222222222225 0.2569444444444444 0.2430555555555556 0.2305555555555555 0.2180555555555556 0.19861111111111107 0.18888888888888888 0.1791666666666667 0.1694444444444444 0.15555555555555556 0.10972222222222228 0.08472222222222225 0.07222222222222219 0.06944444444444442 0.06944444444444442 0.08333333333333337 0.0902777777777778 0.09444444444444444 0.0972222222222222 0.10138888888888886 0.11250000000000004 0.12222222222222225 0.125 0.12777777777777774 0.12777777777777774 0.12777777777777774 0.12777777777777774 0.12916666666666665,0.0 20.0 40.0 60.0 80.0 100.0 120.0 140.0 160.0 180.0 200.0 220.0 240.0 260.0 280.0 300.0 320.0 340.0 360.0 380.0 400.0 420.0 440.0 460.0 480.0 500.0 520.0 540.0 560.0 580.0 600.0 620.0 640.0 660.0 680.0 700.0 720.0 740.0 760.0 780.0 800.0 820.0 840.0 860.0 880.0 900.0 920.0 940.0 960.0 980.0 1000.0 1020.0 1040.0 1060.0 1080.0 1100.0 1120.0 1140.0
cb_06,23.0,enc_trial,stim,response,Fine Arts students,1473.0999999940395,enc_trial,1.0,23.0,s_sh_11_1,student_shared,fold-b,pencil case,6.0,competing,far,paired,s_sh_11_1.jpg,,student-b1,STEM students,Fine Arts students,sub-01,1.0,1.0,1.0,1.0,0.5125 0.5125 0.5114583333333333 0.5104166666666666 0.5083333333333333 0.5052083333333334 0.5010416666666667 0.496875 0.4885416666666666 0.4854166666666666 0.4729166666666666 0.46875 0.4645833333333334 0.4625 0.4614583333333334 0.4583333333333333 0.4583333333333333 0.4583333333333333 0.4572916666666666 0.4572916666666666 0.45625 0.45 0.45 0.45 0.45 0.45 0.45 0.45 0.45 0.45 0.45 0.45 0.45 0.45 0.45 0.45 0.45 0.45 0.34375 0.34375 0.34375 0.34375 0.34375 0.34375 0.34375 0.34375 0.34375 0.34375 0.34375 0.34375 0.34375 0.34375 0.34375 0.34375 0.20208333333333334 0.34375 0.4645833333333334 0.578125 0.6822916666666666 0.7614583333333333 0.8416666666666667 0.8541666666666666 0.859375 0.8614583333333333 0.8625 0.8645833333333334 0.865625 0.865625 0.86875 0.8760416666666667 0.8885416666666667,0.8152777777777778 0.8138888888888889 0.8111111111111111 0.8097222222222222 0.8041666666666667 0.7861111111111111 0.7666666666666666 0.7472222222222222 0.7180555555555556 0.7083333333333333 0.6583333333333333 0.6430555555555555 0.6291666666666667 0.6180555555555556 0.6097222222222223 0.6027777777777779 0.6027777777777779 0.6027777777777779 0.5972222222222222 0.5972222222222222 0.5916666666666667 0.5611111111111111 0.5611111111111111 0.5611111111111111 0.5611111111111111 0.5611111111111111 0.5611111111111111 0.5611111111111111 0.5611111111111111 0.5611111111111111 0.5611111111111111 0.5611111111111111 0.5611111111111111 0.5611111111111111 0.5611111111111111 0.5611111111111111 0.5611111111111111 0.5611111111111111 0.2583333333333333 0.2583333333333333 0.2583333333333333 0.2583333333333333 0.2583333333333333 0.2583333333333333 0.2583333333333333 0.2583333333333333 0.2583333333333333 0.2583333333333333 0.2583333333333333 0.2583333333333333 0.2583333333333333 0.2583333333333333 0.2583333333333333 0.2583333333333333 0.13055555555555556 0.08472222222222225 0.06805555555555554 0.0625 0.0625 0.0625 0.07916666666666672 0.08750000000000002 0.0972222222222222 0.10416666666666664 0.10833333333333328 0.11250000000000004 0.11388888888888893 0.11388888888888893 0.11388888888888893 0.11388888888888893 0.1152777777777778,0.0 20.0 40.0 60.0 80.0 100.0 120.0 140.0 160.0 180.0 200.0 220.0 240.0 260.0 280.0 300.0 320.0 340.0 360.0 380.0 400.0 420.0 440.0 460.0 480.0 500.0 520.0 540.0 560.0 580.0 600.0 620.0 640.0 660.0 680.0 700.0 720.0 740.0 760.0 780.0 800.0 820.0 840.0 860.0 880.0 900.0 920.0 940.0 960.0 980.0 1000.0 1020.0 1040.0 1060.0 1080.0 1100.0 1120.0 1140.0 1160.0 1180.0 1200.0 1220.0 1240.0 1260.0 1280.0 1300.0 1320.0 1340.0 1360.0 1380.0 1400.0
cb_06,24.0,enc_trial,stim,response,Fine Arts students,1165.7000000000114,enc_trial,1.0,24.0,s_sh_10_1,student_shared,fold-b,scissors,6.0,competing,far,paired,s_sh_10_1.jpg,,student-b1,STEM students,Fine Arts students,sub-01,1.0,1.0,1.0,0.0,0.5020833333333333 0.4958333333333334 0.4916666666666666 0.484375 0.478125 0.4635416666666667 0.459375 0.45625 0.45625 0.4552083333333333 0.4520833333333333 0.45 0.4479166666666667 0.44583333333333336 0.4395833333333333 0.4291666666666665 0.42604166666666665 0.42291666666666666 0.41875 0.41458333333333336 0.4 0.39166666666666666 0.38125 0.371875 0.3625 0.3416666666666667 0.3302083333333333 0.3177083333333333 0.3072916666666667 0.296875 0.2770833333333333 0.26666666666666666 0.25833333333333336 0.25416666666666665 0.253125 0.26875 0.284375 0.30104166666666665 0.32083333333333336 0.3458333333333333 0.4604166666666666 0.5572916666666666 0.665625 0.7708333333333334 0.8572916666666667 0.940625 0.9458333333333332 0.9479166666666666 0.9479166666666666 0.946875 0.9458333333333332 0.9447916666666668 0.9427083333333334 0.9395833333333332 0.9354166666666668 0.9260416666666668 0.925 0.9229166666666668,0.8 0.7861111111111111 0.7680555555555555 0.7472222222222222 0.7277777777777779 0.6763888888888889 0.6583333333333333 0.6486111111111111 0.6416666666666666 0.6375 0.6277777777777778 0.6222222222222222 0.6180555555555556 0.6111111111111112 0.5972222222222222 0.5736111111111111 0.5638888888888889 0.5541666666666667 0.5444444444444445 0.5319444444444444 0.4986111111111111 0.4791666666666666 0.4555555555555556 0.43472222222222223 0.4138888888888889 0.37222222222222223 0.3555555555555555 0.3416666666666667 0.3277777777777777 0.3138888888888889 0.2930555555555555 0.2847222222222222 0.2805555555555556 0.275 0.2694444444444445 0.2444444444444445 0.2305555555555555 0.2180555555555556 0.2055555555555556 0.1972222222222222 0.16388888888888886 0.14027777777777772 0.1152777777777778 0.10555555555555553 0.0972222222222222 0.09999999999999998 0.09999999999999998 0.10138888888888886 0.10277777777777776 0.10555555555555553 0.1069444444444444 0.10833333333333328 0.11111111111111116 0.11250000000000004 0.11388888888888893 0.1166666666666667 0.1166666666666667 0.1166666666666667,0.0 20.0 40.0 60.0 80.0 100.0 120.0 140.0 160.0 180.0 200.0 220.0 240.0 260.0 280.0 300.0 320.0 340.0 360.0 380.0 400.0 420.0 440.0 460.0 480.0 500.0 520.0 540.0 560.0 580.0 600.0 620.0 640.0 660.0 680.0 700.0 720.0 740.0 760.0 780.0 800.0 820.0 840.0 860.0 880.0 900.0 920.0 940.0 960.0 980.0 1000.0 1020.0 1040.0 1060.0 1080.0 1100.0 1120.0 1140.0
cb_06,25.0,enc_trial,stim,response,Fine Arts students,1000.599999982107,enc_trial,1.0,25.0,s_sh_20_1,student_shared,fold-c,tape,6.0,competing,close,paired,s_sh_20_1.jpg,,student-b1,STEM students,Fine Arts students,sub-01,1.0,1.0,0.0,0.0,0.490625 0.4895833333333333 0.4875 0.484375 0.4822916666666667 0.4802083333333334 0.4802083333333334 0.4802083333333334 0.48125 0.484375 0.4875 0.4885416666666666 0.4895833333333333 0.4895833333333333 0.490625 0.4947916666666667 0.4979166666666667 0.5020833333333333 0.5145833333333333 0.53125 0.5645833333333333 0.578125 0.59375 0.6125 0.6333333333333333 0.68125 0.7 0.7177083333333333 0.7395833333333334 0.75 0.7583333333333333 0.7604166666666666 0.7645833333333333 0.7666666666666667 0.7708333333333334 0.7833333333333333 0.7916666666666666 0.8 0.8135416666666667 0.81875 0.8270833333333333 0.83125 0.8385416666666666 0.846875 0.8552083333333333 0.8645833333333334 0.865625,0.7111111111111111 0.6972222222222222 0.6833333333333333 0.6708333333333334 0.6583333333333333 0.6416666666666666 0.6347222222222222 0.6194444444444445 0.6111111111111112 0.6013888888888889 0.5833333333333333 0.5763888888888888 0.5694444444444444 0.5666666666666667 0.5597222222222222 0.5472222222222223 0.5402777777777779 0.5333333333333333 0.5166666666666666 0.5027777777777778 0.475 0.4638888888888889 0.45 0.4361111111111111 0.4222222222222223 0.3986111111111112 0.3875 0.37916666666666665 0.3666666666666667 0.3611111111111112 0.3527777777777777 0.35 0.34444444444444444 0.33611111111111114 0.3277777777777777 0.3013888888888889 0.2805555555555556 0.2625 0.2361111111111112 0.21944444444444444 0.2 0.1944444444444444 0.18611111111111112 0.1791666666666667 0.17222222222222228 0.16388888888888886 0.16388888888888886,0.0 20.0 40.0 60.0 80.0 100.0 120.0 140.0 160.0 180.0 200.0 220.0 240.0 260.0 280.0 300.0 320.0 340.0 360.0 380.0 400.0 420.0 440.0 460.0 480.0 500.0 520.0 540.0 560.0 580.0 600.0 620.0 640.0 660.0 680.0 700.0 720.0 740.0 760.0 780.0 800.0 820.0 840.0 860.0 880.0 900.0 920.0
cb_06,26.0,enc_trial,stim,response,STEM students,1111.4999999940628,enc_trial,1.0,26.0,s_s_11_2,student_stem,fold-d,scientific scale,6.0,unique,far,paired,s_s_11_2.jpg,stem,student-b1,STEM students,Fine Arts students,sub-01,1.0,1.0,1.0,1.0,0.5625 0.5625 0.5625 0.5625 0.5625 0.5614583333333333 0.5583333333333333 0.5541666666666667 0.5541666666666667 0.553125 0.5510416666666667 0.5510416666666667 0.5510416666666667 0.55 0.5489583333333333 0.5458333333333333 0.54375 0.5385416666666667 0.5375 0.5333333333333333 0.5270833333333333 0.5239583333333333 0.5208333333333334 0.5166666666666667 0.5135416666666667 0.4979166666666667 0.4875 0.4729166666666666 0.44375 0.42291666666666666 0.37916666666666665 0.3489583333333333 0.3270833333333333 0.31354166666666666 0.3072916666666667 0.3020833333333333 0.2989583333333333 0.2916666666666667 0.2791666666666667 0.26979166666666665 0.259375 0.25416666666666665 0.2458333333333333 0.23541666666666666 0.2260416666666667 0.203125 0.19479166666666667 0.18958333333333333 0.18125 0.17708333333333334 0.15208333333333332 0.13020833333333334 0.109375 0.09583333333333334 0.09375 0.09166666666666666,0.7513888888888889 0.7375 0.725 0.7083333333333333 0.6972222222222222 0.6708333333333334 0.6583333333333333 0.6458333333333333 0.6430555555555555 0.6416666666666666 0.6375 0.6375 0.6375 0.6361111111111111 0.6333333333333333 0.6277777777777778 0.6208333333333333 0.6041666666666667 0.5916666666666667 0.5833333333333333 0.5680555555555555 0.5638888888888889 0.5583333333333333 0.55 0.5388888888888889 0.5041666666666667 0.4805555555555555 0.4541666666666667 0.4166666666666666 0.39583333333333337 0.3583333333333333 0.34444444444444444 0.33611111111111114 0.33333333333333337 0.3277777777777777 0.3083333333333333 0.2972222222222223 0.2847222222222222 0.27083333333333337 0.26388888888888884 0.25277777777777777 0.2444444444444445 0.2361111111111112 0.2277777777777777 0.21944444444444444 0.2069444444444445 0.20138888888888884 0.1958333333333333 0.18888888888888888 0.18472222222222226 0.1777777777777778 0.1777777777777778 0.1777777777777778 0.1777777777777778 0.1777777777777778 0.17638888888888893,0.0 20.0 40.0 60.0 80.0 100.0 120.0 140.0 160.0 180.0 200.0 220.0 240.0 260.0 280.0 300.0 320.0 340.0 360.0 380.0 400.0 420.0 440.0 460.0 480.0 500.0 520.0 540.0 560.0 580.0 600.0 620.0 640.0 660.0 680.0 700.0 720.0 740.0 760.0 780.0 800.0 820.0 840.0 860.0 880.0 900.0 920.0 940.0 960.0 980.0 1000.0 1020.0 1040.0 1060.0 1080.0 1100.0
cb_06,27.0,enc_trial,stim,response,STEM students,2024.1999999940165,enc_trial,1.0,27.0,s_s_17_1,student_stem,fold-e,ring stand,6.0,unique,close,paired,s_s_17_1.jpg,stem,student-b1,STEM students,Fine Arts students,sub-01,1.0,1.0,1.0,1.0,0.4895833333333333 0.4895833333333333 0.4895833333333333 0.4895833333333333 0.4895833333333333 0.4895833333333333 0.4895833333333333 0.4895833333333333 0.4854166666666666 0.4739583333333333 0.4427083333333333 0.43020833333333336 0.425 0.4208333333333333 0.4125 0.3770833333333333 0.3572916666666667 0.3395833333333333 0.3114583333333333 0.28125 0.1875 0.1375 0.096875 0.06875 0.05416666666666667 0.04791666666666667 0.046875 0.04375 0.040625 0.036458333333333336 0.02083333333333333 0.014583333333333334 0.010416666666666666 0.010416666666666666 0.010416666666666666 0.010416666666666666 0.010416666666666666 0.010416666666666666 0.007291666666666667 0.007291666666666667 0.014583333333333334 0.022916666666666655 0.029166666666666667 0.0375 0.04166666666666666 0.04375 0.04375 0.04375 0.04375 0.04375 0.04479166666666667 0.04479166666666667 0.046875 0.04791666666666667 0.05416666666666667 0.05833333333333333 0.05833333333333333 0.05833333333333333 0.05833333333333333 0.05833333333333333 0.05833333333333333 0.05833333333333333 0.05833333333333333 0.05833333333333333 0.05833333333333333 0.06875 0.06875 0.06875 0.06875 0.06875 0.06875 0.06875 0.06875 0.06875 0.06875 0.06875 0.06875 0.06875 0.06875 0.06875 0.06875 0.06875 0.06875 0.06875 0.06875 0.06875 0.06875 0.06875 0.06875 0.06979166666666667,0.7444444444444445 0.7444444444444445 0.7444444444444445 0.7444444444444445 0.7444444444444445 0.7444444444444445 0.7416666666666667 0.7416666666666667 0.7361111111111112 0.7277777777777779 0.6902777777777778 0.6625 0.6375 0.6180555555555556 0.6 0.5583333333333333 0.5388888888888889 0.525 0.5027777777777778 0.4902777777777778 0.4625 0.45 0.4388888888888889 0.4236111111111112 0.4125 0.3986111111111112 0.3902777777777777 0.375 0.3666666666666667 0.35416666666666663 0.3291666666666667 0.3194444444444444 0.3111111111111111 0.3055555555555556 0.2972222222222223 0.2805555555555556 0.27083333333333337 0.2625 0.2444444444444445 0.2333333333333333 0.1930555555555556 0.17500000000000004 0.1611111111111111 0.1527777777777778 0.14722222222222225 0.14722222222222225 0.14722222222222225 0.14722222222222225 0.14722222222222225 0.14722222222222225 0.14722222222222225 0.14722222222222225 0.14722222222222225 0.14722222222222225 0.14722222222222225 0.14583333333333334 0.14583333333333334 0.14583333333333334 0.14583333333333334 0.14583333333333334 0.14583333333333334 0.14583333333333334 0.14583333333333334 0.14583333333333334 0.14583333333333334 0.14166666666666672 0.14166666666666672 0.14166666666666672 0.14166666666666672 0.14166666666666672 0.14166666666666672 0.14166666666666672 0.14166666666666672 0.14166666666666672 0.14166666666666672 0.14166666666666672 0.14166666666666672 0.14166666666666672 0.14166666666666672 0.14166666666666672 0.14166666666666672 0.14166666666666672 0.14166666666666672 0.14166666666666672 0.14166666666666672 0.14166666666666672 0.14166666666666672 0.14166666666666672 0.14166666666666672 0.14166666666666672,249.79999999998842 269.7999999999884 289.79999999998836 309.79999999998836 329.79999999998836 349.7999999999884 369.7999999999884 389.7999999999884 409.7999999999884 429.7999999999884 449.7999999999884 469.7999999999884 489.7999999999884 509.7999999999884 529.7999999999884 549.7999999999884 569.7999999999884 589.7999999999884 609.7999999999884 629.7999999999884 649.7999999999884 669.7999999999884 689.7999999999884 709.7999999999884 729.7999999999884 749.7999999999884 769.7999999999884 789.7999999999884 809.7999999999884 829.7999999999884 849.7999999999884 869.7999999999884 889.7999999999884 909.7999999999884 929.7999999999884 949.7999999999884 969.7999999999884 989.7999999999884 1009.7999999999884 1029.7999999999884 1049.7999999999884 1069.7999999999884 1089.7999999999884 1109.7999999999884 1129.7999999999886 1149.7999999999886 1169.7999999999886 1189.7999999999886 1209.7999999999886 1229.7999999999886 1249.7999999999886 1269.7999999999886 1289.7999999999886 1309.7999999999886 1329.7999999999886 1349.7999999999886 1369.7999999999886 1389.7999999999884 1409.7999999999884 1429.7999999999884 1449.7999999999884 1469.7999999999884 1489.7999999999884 1509.7999999999884 1529.7999999999884 1549.7999999999884 1569.7999999999884 1589.7999999999884 1609.7999999999884 1629.7999999999884 1649.7999999999884 1669.7999999999884 1689.7999999999884 1709.7999999999884 1729.7999999999884 1749.7999999999884 1769.7999999999884 1789.7999999999884 1809.7999999999884 1829.7999999999884 1849.7999999999884 1869.7999999999884 1889.7999999999884 1909.7999999999884 1929.7999999999884 1949.7999999999884 1969.7999999999884 1989.7999999999884 2009.7999999999884 2029.7999999999884
cb_06,28.0,enc_trial,stim,response,STEM students,1057.4999999940628,enc_trial,1.0,28.0,s_a_10_1,student_art,fold-a-single,tripod,6.0,unique,,single,s_a_10_1.jpg,art,student-b1,STEM students,Fine Arts students,sub-01,0.0,,0.0,,0.5041666666666667 0.5041666666666667 0.5041666666666667 0.5041666666666667 0.5041666666666667 0.5041666666666667 0.5020833333333333 0.5 0.4979166666666667 0.4958333333333334 0.4885416666666666 0.4833333333333333 0.4760416666666666 0.4645833333333334 0.44895833333333335 0.41875 0.40208333333333335 0.3875 0.3739583333333333 0.36354166666666665 0.3416666666666667 0.33541666666666664 0.32916666666666666 0.325 0.32083333333333336 0.31354166666666666 0.3104166666666667 0.3083333333333333 0.30416666666666664 0.3020833333333333 0.29791666666666666 0.2947916666666667 0.2927083333333333 0.28854166666666664 0.2833333333333333 0.2635416666666667 0.25416666666666665 0.2479166666666667 0.2395833333333333 0.2333333333333333 0.21875 0.21041666666666667 0.20208333333333334 0.19166666666666668 0.18541666666666667 0.17916666666666667 0.17708333333333334 0.175 0.171875 0.16770833333333332 0.16458333333333333,0.8277777777777777 0.825 0.8222222222222222 0.8194444444444444 0.8138888888888889 0.7972222222222223 0.7861111111111111 0.7722222222222223 0.7597222222222222 0.7472222222222222 0.7152777777777778 0.7 0.6791666666666667 0.6569444444444444 0.6291666666666667 0.5708333333333333 0.5430555555555556 0.5166666666666666 0.4930555555555556 0.4722222222222222 0.4194444444444444 0.4027777777777778 0.3916666666666667 0.3805555555555555 0.37083333333333335 0.3555555555555555 0.3486111111111111 0.3416666666666667 0.33472222222222225 0.3291666666666667 0.3208333333333333 0.31527777777777777 0.30972222222222223 0.3041666666666667 0.2972222222222223 0.28194444444444444 0.275 0.2666666666666667 0.2583333333333333 0.25 0.225 0.21944444444444444 0.2138888888888889 0.20972222222222225 0.2055555555555556 0.2 0.1972222222222222 0.1944444444444444 0.1930555555555556 0.18888888888888888 0.18611111111111112,16.700000000011638 36.70000000001164 56.70000000001164 76.70000000001166 96.70000000001166 116.70000000001166 136.7000000000117 156.7000000000117 176.70000000001167 196.70000000001167 216.70000000001167 236.70000000001167 256.7000000000117 276.7000000000117 296.7000000000117 316.7000000000117 336.7000000000117 356.7000000000117 376.7000000000117 396.7000000000117 416.7000000000117 436.7000000000117 456.7000000000117 476.7000000000117 496.70000000001176 516.7000000000119 536.7000000000119 556.7000000000119 576.7000000000118 596.7000000000118 616.7000000000118 636.7000000000118 656.7000000000118 676.7000000000118 696.7000000000118 716.7000000000118 736.7000000000118 756.7000000000118 776.7000000000118 796.7000000000118 816.7000000000118 836.7000000000118 856.7000000000118 876.7000000000118 896.7000000000118 916.7000000000118 936.7000000000118 956.7000000000118 976.7000000000121 996.7000000000121 1016.7000000000121
cb_06,29.0,enc_trial,stim,response,STEM students,1168.199999988079,enc_trial,1.0,29.0,s_sh_07_1,student_shared,fold-a-single,ruler,6.0,competing,,single,s_sh_07_1.jpg,,student-b1,STEM students,Fine Arts students,sub-01,1.0,,1.0,,0.5020833333333333 0.5020833333333333 0.503125 0.5041666666666667 0.5052083333333334 0.5052083333333334 0.50625 0.50625 0.50625 0.50625 0.5083333333333333 0.509375 0.5114583333333333 0.5145833333333333 0.51875 0.525 0.525 0.5229166666666667 0.5197916666666667 0.5125 0.49375 0.478125 0.45625 0.428125 0.39166666666666666 0.37083333333333335 0.36875 0.3666666666666665 0.3645833333333333 0.3583333333333333 0.3302083333333333 0.3104166666666667 0.2958333333333333 0.2875 0.2802083333333333 0.26875 0.2645833333333333 0.25729166666666664 0.2458333333333333 0.2333333333333333 0.20416666666666666 0.19583333333333333 0.19166666666666668 0.19166666666666668 0.18958333333333333 0.18020833333333333 0.17291666666666666 0.16979166666666667 0.16770833333333332 0.16666666666666666,0.8125 0.8111111111111111 0.8097222222222222 0.8083333333333333 0.8027777777777778 0.8027777777777778 0.7972222222222223 0.7958333333333334 0.7944444444444445 0.7888888888888889 0.7763888888888889 0.7680555555555555 0.7583333333333333 0.7333333333333334 0.7083333333333333 0.65 0.625 0.6013888888888889 0.5763888888888888 0.5527777777777778 0.5027777777777778 0.4666666666666667 0.4277777777777778 0.37916666666666665 0.31666666666666665 0.25 0.225 0.2083333333333333 0.2 0.1944444444444444 0.18888888888888888 0.1875 0.18472222222222226 0.1791666666666667 0.17500000000000004 0.16388888888888886 0.15416666666666667 0.1444444444444445 0.13611111111111107 0.12777777777777774 0.11805555555555558 0.1152777777777778 0.11388888888888893 0.11388888888888893 0.11388888888888893 0.11388888888888893 0.1166666666666667 0.1166666666666667 0.1166666666666667 0.11805555555555558,83.29999999998836 103.29999999998836 123.29999999998836 143.2999999999884 163.2999999999884 183.29999999998842 203.29999999998842 223.29999999998842 243.29999999998842 263.2999999999884 283.29999999998836 303.29999999998836 323.29999999998836 343.29999999998836 363.2999999999884 383.2999999999884 403.2999999999884 423.2999999999884 443.2999999999884 463.2999999999884 483.2999999999884 503.2999999999884 523.2999999999884 543.2999999999884 563.2999999999884 583.2999999999884 603.2999999999884 623.2999999999884 643.2999999999884 663.2999999999884 683.2999999999884 703.2999999999884 723.2999999999884 743.2999999999884 763.2999999999884 783.2999999999884 803.2999999999884 823.2999999999884 843.2999999999884 863.2999999999884 883.2999999999884 903.2999999999884 923.2999999999884 943.2999999999884 963.2999999999884 983.2999999999884 1003.2999999999884 1023.2999999999884 1043.2999999999884 1063.2999999999884
cb_06,30.0,enc_trial,stim,response,Fine Arts students,1058.4000000000233,enc_trial,1.0,30.0,s_sh_14_2,student_shared,fold-b,printer,6.0,competing,far,paired,s_sh_14_2.jpg,,student-b1,STEM students,Fine Arts students,sub-01,1.0,1.0,0.0,0.0,0.5114583333333333 0.5114583333333333 0.5114583333333333 0.5114583333333333 0.5114583333333333 0.5104166666666666 0.5104166666666666 0.5104166666666666 0.5104166666666666 0.5104166666666666 0.5166666666666667 0.5239583333333333 0.5354166666666667 0.5479166666666667 0.5552083333333333 0.5708333333333333 0.5770833333333333 0.5802083333333333 0.584375 0.590625 0.6135416666666667 0.6197916666666666 0.621875 0.6229166666666667 0.6270833333333333 0.65625 0.6958333333333333 0.7385416666666667 0.7770833333333333 0.8041666666666667 0.8208333333333333 0.8229166666666666 0.8229166666666666 0.8239583333333333 0.825 0.8479166666666667 0.8625 0.8697916666666666 0.8708333333333333 0.8708333333333333 0.8708333333333333 0.871875,0.8194444444444444 0.8194444444444444 0.8194444444444444 0.8194444444444444 0.8180555555555555 0.8138888888888889 0.8111111111111111 0.8083333333333333 0.8055555555555556 0.8013888888888889 0.775 0.7472222222222222 0.7138888888888889 0.6708333333333334 0.6472222222222221 0.6041666666666667 0.5847222222222221 0.5694444444444444 0.5555555555555556 0.5333333333333333 0.4791666666666666 0.4611111111111112 0.4513888888888888 0.4305555555555556 0.4083333333333333 0.33333333333333337 0.27083333333333337 0.2152777777777778 0.17222222222222228 0.14861111111111114 0.1333333333333333 0.13194444444444442 0.13194444444444442 0.13055555555555556 0.12777777777777774 0.10972222222222228 0.0972222222222222 0.09166666666666667 0.0902777777777778 0.0902777777777778 0.0902777777777778 0.0902777777777778,116.40000000002328 136.40000000002328 156.40000000002328 176.40000000002328 196.40000000002328 216.40000000002328 236.40000000002328 256.4000000000233 276.4000000000233 296.4000000000233 316.4000000000233 336.4000000000233 356.40000000002334 376.40000000002334 396.40000000002334 416.40000000002334 436.40000000002334 456.40000000002334 476.40000000002334 496.40000000002334 516.4000000000234 536.4000000000234 556.4000000000234 576.4000000000233 596.4000000000233 616.4000000000233 636.4000000000233 656.4000000000233 676.4000000000233 696.4000000000232 716.4000000000232 736.4000000000232 756.4000000000232 776.4000000000232 796.4000000000232 816.4000000000232 836.4000000000232 856.4000000000232 876.4000000000232 896.4000000000232 916.4000000000232 936.4000000000232
cb_06,31.0,enc_trial,stim,response,STEM students,1204.9999999821302,enc_trial,1.0,31.0,s_sh_20_2,student_shared,fold-c,tape,6.0,competing,close,paired,s_sh_20_2.jpg,,student-b1,STEM students,Fine Arts students,sub-01,1.0,1.0,0.0,0.0,0.484375 0.484375 0.484375 0.484375 0.484375 0.484375 0.484375 0.484375 0.484375 0.484375 0.484375 0.484375 0.484375 0.484375 0.484375 0.484375 0.484375 0.484375 0.484375 0.484375 0.403125 0.3625 0.334375 0.315625 0.303125 0.284375 0.2645833333333333 0.24479166666666666 0.2260416666666667 0.209375 0.18333333333333326 0.17291666666666666 0.165625 0.16041666666666668 0.15416666666666667 0.134375 0.13125 0.12708333333333333,0.8194444444444444 0.8194444444444444 0.8194444444444444 0.8194444444444444 0.8194444444444444 0.8194444444444444 0.8194444444444444 0.8194444444444444 0.8194444444444444 0.8194444444444444 0.8194444444444444 0.8194444444444444 0.8194444444444444 0.8194444444444444 0.8194444444444444 0.8194444444444444 0.8194444444444444 0.8194444444444444 0.8194444444444444 0.8194444444444444 0.2416666666666667 0.2416666666666667 0.2416666666666667 0.2361111111111112 0.2305555555555555 0.2083333333333333 0.1875 0.17222222222222228 0.15833333333333333 0.14583333333333334 0.125 0.11805555555555558 0.1152777777777778 0.11111111111111116 0.11111111111111116 0.10972222222222228 0.10972222222222228 0.10833333333333328,366.2999999999884 386.2999999999884 406.2999999999884 426.2999999999884 446.2999999999884 466.2999999999884 486.2999999999884 506.2999999999884 526.2999999999884 546.2999999999884 566.2999999999884 586.2999999999884 606.2999999999884 626.2999999999884 646.2999999999884 666.2999999999884 686.2999999999884 706.2999999999884 726.2999999999884 746.2999999999884 766.2999999999884 786.2999999999884 806.2999999999884 826.2999999999884 846.2999999999884 866.2999999999884 886.2999999999884 906.2999999999884 926.2999999999884 946.2999999999884 966.2999999999884 986.2999999999884 1006.2999999999884 1026.2999999999884 1046.2999999999884 1066.2999999999884 1086.2999999999884 1106.2999999999884
cb_06,32.0,enc_trial,stim,response,Fine Arts students,1478.2999999880558,enc_trial,1.0,32.0,s_a_06_2,student_art,fold-d,pastels,6.0,unique,far,paired,s_a_06_2.jpg,art,student-b1,STEM students,Fine Arts students,sub-01,0.0,0.0,1.0,1.0,0.4895833333333333 0.4895833333333333 0.4895833333333333 0.490625 0.490625 0.4916666666666666 0.49375 0.4958333333333334 0.5 0.5041666666666667 0.5125 0.51875 0.5229166666666667 0.528125 0.5322916666666667 0.5416666666666666 0.5447916666666667 0.5489583333333333 0.5520833333333334 0.5541666666666667 0.55625 0.5583333333333333 0.5614583333333333 0.5645833333333333 0.565625 0.565625 0.5645833333333333 0.5614583333333333 0.5552083333333333 0.5458333333333333 0.5020833333333333 0.4604166666666666 0.4125 0.35625 0.3333333333333333 0.309375 0.30104166666666665 0.2916666666666667 0.28125 0.26875 0.2375 0.225 0.215625 0.21041666666666667 0.2083333333333333 0.20729166666666668 0.2125 0.221875 0.240625 0.2770833333333333 0.4510416666666667 0.5479166666666667 0.6302083333333334 0.7052083333333333 0.7479166666666667 0.7791666666666667 0.7802083333333333 0.7802083333333333 0.7802083333333333 0.78125 0.7833333333333333 0.7895833333333333 0.8083333333333333 0.828125 0.840625 0.8458333333333333 0.8458333333333333 0.846875 0.8479166666666667 0.8479166666666667 0.85625 0.859375 0.8625,0.8194444444444444 0.8194444444444444 0.8194444444444444 0.8166666666666667 0.8166666666666667 0.8097222222222222 0.8027777777777778 0.7972222222222223 0.7888888888888889 0.7791666666666667 0.7611111111111111 0.7527777777777778 0.7430555555555556 0.7333333333333334 0.725 0.6972222222222222 0.6861111111111111 0.6722222222222223 0.6611111111111111 0.6513888888888889 0.6347222222222222 0.6208333333333333 0.6013888888888889 0.5805555555555555 0.5638888888888889 0.5277777777777778 0.5097222222222222 0.4944444444444445 0.4777777777777778 0.4611111111111112 0.4277777777777778 0.4069444444444445 0.3805555555555555 0.3430555555555556 0.3222222222222222 0.28194444444444444 0.2611111111111111 0.2444444444444445 0.2333333333333333 0.2180555555555556 0.1944444444444444 0.18333333333333326 0.17222222222222228 0.16249999999999998 0.15555555555555556 0.13611111111111107 0.12638888888888888 0.1152777777777778 0.10277777777777776 0.09166666666666667 0.05000000000000005 0.04583333333333328 0.04583333333333328 0.05138888888888893 0.06111111111111112 0.08194444444444449 0.08611111111111114 0.0888888888888889 0.09166666666666667 0.09305555555555556 0.0972222222222222 0.09999999999999998 0.10555555555555553 0.11111111111111116 0.1166666666666667 0.12222222222222225 0.12222222222222225 0.12361111111111113 0.125 0.125 0.12916666666666665 0.13055555555555556 0.1333333333333333,0.0 20.0 40.0 60.0 80.0 100.0 120.0 140.0 160.0 180.0 200.0 220.0 240.0 260.0 280.0 300.0 320.0 340.0 360.0 380.0 400.0 420.0 440.0 460.0 480.0 500.0 520.0 540.0 560.0 580.0 600.0 620.0 640.0 660.0 680.0 700.0 720.0 740.0 760.0 780.0 800.0 820.0 840.0 860.0 880.0 900.0 920.0 940.0 960.0 980.0 1000.0 1020.0 1040.0 1060.0 1080.0 1100.0 1120.0 1140.0 1160.0 1180.0 1200.0 1220.0 1240.0 1260.0 1280.0 1300.0 1320.0 1340.0 1360.0 1380.0 1400.0 1420.0 1440.0
cb_06,33.0,enc_trial,stim,response,Fine Arts students,1529.9000000000233,enc_trial,1.0,33.0,s_sh_18_1,student_shared,fold-c,wall calendar,6.0,competing,close,paired,s_sh_18_1.jpg,,student-b1,STEM students,Fine Arts students,sub-01,1.0,1.0,1.0,1.0,0.5010416666666667 0.5010416666666667 0.5010416666666667 0.5 0.4989583333333333 0.4979166666666667 0.4979166666666667 0.4979166666666667 0.496875 0.4958333333333334 0.4895833333333333 0.4854166666666666 0.48125 0.4770833333333334 0.4729166666666666 0.4666666666666667 0.4625 0.4614583333333334 0.4583333333333333 0.4552083333333333 0.44166666666666665 0.425 0.41458333333333336 0.4083333333333333 0.39166666666666666 0.3614583333333333 0.3458333333333333 0.33125 0.3177083333333333 0.3020833333333333 0.28125 0.275 0.26875 0.26666666666666666 0.26666666666666666 0.26666666666666666 0.26875 0.2708333333333333 0.28125 0.30416666666666664 0.503125 0.55625 0.68125 0.81875 0.85625 0.875 0.875 0.875 0.875 0.875 0.875 0.8760416666666667 0.8802083333333334 0.884375 0.8854166666666666 0.8875 0.8875 0.8875 0.8875 0.8875 0.8875 0.8875 0.8875,0.8166666666666667 0.8166666666666667 0.8125 0.8083333333333333 0.8055555555555556 0.8 0.7958333333333334 0.7888888888888889 0.7805555555555556 0.7736111111111111 0.7333333333333334 0.7055555555555555 0.6805555555555556 0.65 0.6194444444444445 0.575 0.5583333333333333 0.5430555555555556 0.525 0.5097222222222222 0.4694444444444445 0.43333333333333335 0.4097222222222222 0.3972222222222223 0.3666666666666667 0.3319444444444445 0.3138888888888889 0.2972222222222223 0.2791666666666667 0.26388888888888884 0.2402777777777778 0.2319444444444444 0.225 0.21944444444444444 0.21666666666666667 0.2083333333333333 0.2055555555555556 0.20138888888888884 0.1972222222222222 0.19166666666666665 0.16388888888888886 0.16388888888888886 0.16388888888888886 0.16388888888888886 0.16388888888888886 0.16388888888888886 0.16388888888888886 0.16388888888888886 0.16388888888888886 0.16388888888888886 0.16388888888888886 0.16388888888888886 0.16388888888888886 0.16249999999999998 0.16249999999999998 0.16249999999999998 0.16249999999999998 0.16249999999999998 0.16249999999999998 0.16249999999999998 0.1611111111111111 0.1611111111111111 0.1597222222222222,183.20000000001164 203.20000000001164 223.20000000001164 243.20000000001164 263.20000000001164 283.20000000001164 303.20000000001164 323.20000000001164 343.20000000001164 363.2000000000117 383.2000000000117 403.2000000000117 423.2000000000117 443.2000000000117 463.2000000000117 483.2000000000117 503.2000000000117 523.2000000000116 543.2000000000116 563.2000000000116 583.2000000000116 603.2000000000116 623.2000000000116 643.2000000000116 663.2000000000116 683.2000000000116 703.2000000000116 723.2000000000116 743.2000000000116 763.2000000000116 783.2000000000116 803.2000000000116 823.2000000000116 843.2000000000116 863.2000000000116 883.2000000000116 903.2000000000116 923.2000000000116 943.2000000000116 963.2000000000116 983.2000000000116 1003.2000000000116 1023.2000000000116 1043.2000000000116 1063.2000000000116 1083.2000000000116 1103.2000000000116 1123.2000000000116 1143.2000000000114 1163.2000000000114 1183.2000000000114 1203.2000000000114 1223.2000000000114 1243.2000000000114 1263.2000000000114 1283.2000000000114 1303.2000000000114 1323.2000000000114 1343.2000000000114 1363.2000000000114 1383.2000000000116 1403.2000000000116 1423.2000000000116
cb_06,34.0,enc_trial,stim,response,Fine Arts students,1277.4999999881254,enc_trial,1.0,34.0,s_sh_02_1,student_shared,fold-a-single,eraser,6.0,competing,,single,s_sh_02_1.jpg,,student-b1,STEM students,Fine Arts students,sub-01,1.0,,1.0,,0.5072916666666667 0.4635416666666667 0.45625 0.4510416666666667 0.4447916666666665 0.43333333333333335 0.425 0.41458333333333336 0.40625 0.4010416666666667 0.390625 0.3854166666666667 0.37916666666666665 0.37083333333333335 0.36041666666666666 0.3427083333333333 0.33645833333333336 0.3302083333333333 0.3260416666666667 0.31875 0.30104166666666665 0.2916666666666667 0.2833333333333333 0.2770833333333333 0.2708333333333333 0.2614583333333333 0.259375 0.2604166666666667 0.26666666666666666 0.29375 0.40625 0.4895833333333333 0.5729166666666666 0.6572916666666667 0.73125 0.8083333333333333 0.8208333333333333 0.8229166666666666 0.8229166666666666 0.8239583333333333 0.8239583333333333 0.8239583333333333 0.8239583333333333 0.8239583333333333 0.8239583333333333 0.8239583333333333 0.8239583333333333 0.8239583333333333 0.8677083333333333 0.86875 0.871875 0.871875 0.871875 0.871875 0.871875 0.871875,0.8569444444444445 0.7777777777777778 0.7666666666666666 0.7555555555555555 0.7402777777777778 0.7083333333333333 0.6916666666666667 0.6638888888888889 0.6472222222222221 0.6347222222222222 0.6125 0.6027777777777779 0.5888888888888889 0.5763888888888888 0.5597222222222222 0.5277777777777778 0.5138888888888888 0.5027777777777778 0.4930555555555556 0.4777777777777778 0.4472222222222222 0.4319444444444445 0.41527777777777775 0.4027777777777778 0.3861111111111111 0.3555555555555555 0.3388888888888889 0.3222222222222222 0.3055555555555556 0.2875 0.25555555555555554 0.24722222222222226 0.2444444444444445 0.2444444444444445 0.2444444444444445 0.2444444444444445 0.24722222222222226 0.24722222222222226 0.24722222222222226 0.24722222222222226 0.24722222222222226 0.24722222222222226 0.24722222222222226 0.24722222222222226 0.24722222222222226 0.24722222222222226 0.24722222222222226 0.24722222222222226 0.2347222222222223 0.21666666666666667 0.18888888888888888 0.17638888888888893 0.16666666666666666 0.15694444444444444 0.15000000000000002 0.1444444444444445,116.5 136.5 156.5 176.5 196.5 216.5 236.5 256.5 276.5 296.5 316.5 336.5 356.5 376.5 396.5 416.5 436.5 456.5 476.5 496.5 516.5 536.5 556.5 576.5 596.5 616.5 636.5 656.5 676.5 696.5 716.5 736.5 756.5 776.5 796.5 816.5 836.5 856.5 876.5 896.5 916.5 936.5 956.5 976.5 996.5 1016.5 1036.5 1056.5 1076.5 1096.5 1116.5 1136.5 1156.5 1176.5 1196.5 1216.5
