Current Spreadsheet,Trial Number,Display,Screen,Response Type,Response,Reaction Time,display,block,block_trial,stimulus_id,expected_goal,fold,stimulus_name,c_group,condition,within_block_dist,paired_status,stimulus_path,expected_location,block_split,respStim_1,respStim_2,sub_label,acc,both_enc_acc,assoc_stim1_acc,assoc_stim2_acc,x_pos,y_pos,time_trajectories
cb_07,1.0,enc_trial,stim,response,Miami trip,2287.0999998092598,enc_trial,1.0,1.0,t_s_02_1,travel_shared,fold-b,water bottle,7.0,competing,far,paired,t_s_02_1.jpg,,travel-b1,Iceland trip,Miami trip,sub-41,0.0,0.0,0.0,1.0,0.4987479131886478 0.4962437395659433 0.4937395659432388 0.4937395659432388 0.4937395659432388 0.4862270450751252 0.4787145242070117 0.4712020033388982 0.4561769616026711 0.43989983305509184 0.421118530884808 0.4123539232053423 0.40609348914858096 0.3998330550918197 0.3960767946577629 0.39482470784641066 0.39482470784641066 0.39482470784641066 0.39232053422370616 0.3885642737896494 0.3885642737896494 0.3898163606010017 0.3910684474123539 0.3910684474123539 0.3910684474123539 0.3910684474123539 0.3910684474123539 0.3910684474123539 0.3910684474123539 0.3910684474123539 0.3910684474123539 0.3910684474123539 0.3910684474123539 0.3910684474123539 0.3910684474123539 0.3960767946577629 0.4323873121869783 0.4611853088480801 0.510016694490818 0.5438230383973289 0.5726210350584308 0.6039232053422371 0.6064273789649416 0.6064273789649416 0.6064273789649416 0.6064273789649416 0.6064273789649416 0.6064273789649416 0.6064273789649416 0.6064273789649416 0.6064273789649416 0.6076794657762938 0.6101836393989983 0.6151919866444073 0.6189482470784641 0.6239565943238732 0.6414858096828047 0.6502504173622704 0.6615191986644406 0.6690317195325542 0.6815525876460767 0.6853088480801335 0.6903171953255425 0.6940734557595992 0.6953255425709515 0.6978297161936561 0.7065943238731218 0.7103505843071786 0.7141068447412353 0.7153589315525876 0.7278797996661102 0.7341402337228714 0.7479131886477461 0.7654424040066777 0.7842237061769616 0.8080133555926544 0.8130217028380634 0.8142737896494157 0.8142737896494157 0.8142737896494157 0.8142737896494157 0.8155258764607679 0.8167779632721202 0.8180300500834724 0.8192821368948247 0.8205342237061769 0.8267946577629381 0.8305509181969949 0.8343071786310517 0.8368113522537562 0.8380634390651085 0.8393155258764607 0.840567612687813 0.840567612687813 0.8418196994991652,0.8196994991652755 0.8080133555926544 0.7863105175292153 0.7595993322203672 0.7328881469115192 0.6460767946577629 0.5943238731218699 0.5375626043405677 0.4574290484140233 0.41569282136894825 0.3539232053422371 0.327212020033389 0.3038397328881469 0.28046744574290483 0.26377295492487474 0.25375626043405675 0.24707846410684475 0.24707846410684475 0.24707846410684475 0.2621035058430717 0.26377295492487474 0.2621035058430717 0.2621035058430717 0.2621035058430717 0.2621035058430717 0.2621035058430717 0.2621035058430717 0.2621035058430717 0.2621035058430717 0.2621035058430717 0.2621035058430717 0.2621035058430717 0.2621035058430717 0.2621035058430717 0.2621035058430717 0.2621035058430717 0.24707846410684475 0.23873121869782976 0.23038397328881466 0.22203672787979967 0.21869782971619367 0.21035058430717868 0.21035058430717868 0.21035058430717868 0.21035058430717868 0.21035058430717868 0.21035058430717868 0.21035058430717868 0.21035058430717868 0.21035058430717868 0.21035058430717868 0.21035058430717868 0.21035058430717868 0.21035058430717868 0.21368948247078468 0.21368948247078468 0.21702838063439067 0.21702838063439067 0.21702838063439067 0.21702838063439067 0.21702838063439067 0.21702838063439067 0.21702838063439067 0.21702838063439067 0.21702838063439067 0.21702838063439067 0.21702838063439067 0.21702838063439067 0.21702838063439067 0.21702838063439067 0.21035058430717868 0.20367278797996646 0.19699499165275453 0.1886477462437396 0.1819699499165276 0.1702838063439065 0.1702838063439065 0.1669449081803005 0.1669449081803005 0.1669449081803005 0.1669449081803005 0.1669449081803005 0.1652754590984975 0.1652754590984975 0.1636060100166945 0.1636060100166945 0.1585976627712855 0.1552587646076795 0.1535893155258765 0.1519198664440734 0.1502504173622704 0.1502504173622704 0.1485809682804674 0.1485809682804674 0.1485809682804674,400.0 420.0 440.0 460.0 480.0 500.0 520.0 540.0 560.0 580.0 600.0 620.0 640.0 660.0 680.0 700.0 720.0 740.0 760.0 780.0 800.0 820.0 840.0 860.0 880.0 900.0 920.0 940.0 960.0 980.0 1000.0 1020.0 1040.0 1060.0 1080.0 1100.0 1120.0 1140.0 1160.0 1180.0 1200.0 1220.0 1240.0 1260.0 1280.0 1300.0 1320.0 1340.0 1360.0 1380.0 1400.0 1420.0 1440.0 1460.0 1480.0 1500.0 1520.0 1540.0 1560.0 1580.0 1600.0 1620.0 1640.0 1660.0 1680.0 1700.0 1720.0 1740.0 1760.0 1780.0 1800.0 1820.0 1840.0 1860.0 1880.0 1900.0 1920.0 1940.0 1960.0 1980.0 2000.0 2020.0 2040.0 2060.0 2080.0 2100.0 2120.0 2140.0 2160.0 2180.0 2200.0 2220.0 2240.0 2260.0 2280.0
cb_07,2.0,enc_trial,stim,response,Iceland trip,1704.6000000000058,enc_trial,1.0,2.0,t_s_18_1,travel_shared,fold-a,first aid kit,7.0,competing,close,paired,t_s_18_1.jpg,,travel-b1,Iceland trip,Miami trip,sub-41,0.0,0.0,0.0,0.0,0.4974958263772955 0.4912353923205342 0.484974958263773 0.4787145242070117 0.4724540901502504 0.4712020033388982 0.4586811352253756 0.4536727879799666 0.4499165275459098 0.4461602671118531 0.4449081803005008 0.4449081803005008 0.4449081803005008 0.4449081803005008 0.4449081803005008 0.4449081803005008 0.4449081803005008 0.4449081803005008 0.4449081803005008 0.4449081803005008 0.4449081803005008 0.4449081803005008 0.4461602671118531 0.4461602671118531 0.4461602671118531 0.4449081803005008 0.43363939899833054 0.4273789649415693 0.4173622704507513 0.4023372287145242 0.3810517529215359 0.3697829716193656 0.3585141903171953 0.3484974958263773 0.3322203672787981 0.31969949916527546 0.2846410684474123 0.2696160267111853 0.2508347245409015 0.2370617696160267 0.2157762938230384 0.20826377295492485 0.20575959933222035 0.2020033388981636 0.19949916527545908 0.19949916527545908 0.19949916527545908 0.19949916527545908 0.19824707846410689 0.1957429048414024 0.1882303839732888 0.1857262103505843 0.18071786310517526 0.179465776293823 0.17696160267111852 0.17320534223706174 0.16569282136894822 0.16318864774624373 0.16068447412353926 0.1581803005008347 0.1581803005008347,0.8430717863105175 0.8313856427378965 0.8130217028380634 0.7896494156928213 0.7646076794657763 0.7412353923205341 0.6427378964941569 0.5993322203672788 0.5575959933222037 0.5275459098497496 0.4724540901502504 0.4474123539232053 0.4223706176961601 0.39565943238731216 0.3672787979966611 0.340567612687813 0.2971619365609349 0.2904841402337228 0.2888146911519198 0.2854757929883138 0.28046744574290483 0.27712854757929883 0.27712854757929883 0.27712854757929883 0.27712854757929883 0.27212020033388984 0.24707846410684475 0.2370617696160268 0.22704507512520866 0.21535893155258767 0.20367278797996646 0.1986644407345576 0.1919866444073456 0.1903171953255426 0.1836393989983306 0.1819699499165276 0.1736227045075125 0.1686143572621035 0.1669449081803005 0.1652754590984975 0.1619365609348915 0.1619365609348915 0.1619365609348915 0.1619365609348915 0.1619365609348915 0.1619365609348915 0.1619365609348915 0.1619365609348915 0.1619365609348915 0.1602671118530885 0.1585976627712855 0.1552587646076795 0.1552587646076795 0.1535893155258765 0.1519198664440734 0.1502504173622704 0.1485809682804674 0.1452420701168614 0.1452420701168614 0.1452420701168614 0.1435726210350584,466.7000000000117 486.7000000000117 506.7000000000117 526.7000000000116 546.7000000000116 566.7000000000116 586.7000000000116 606.7000000000116 626.7000000000116 646.7000000000116 666.7000000000116 686.7000000000116 706.7000000000116 726.7000000000116 746.7000000000116 766.7000000000116 786.7000000000116 806.7000000000116 826.7000000000116 846.7000000000116 866.7000000000116 886.7000000000116 906.7000000000116 926.7000000000116 946.7000000000116 966.7000000000116 986.7000000000116 1006.7000000000116 1026.7000000000116 1046.7000000000116 1066.7000000000116 1086.7000000000116 1106.7000000000116 1126.7000000000114 1146.7000000000114 1166.7000000000114 1186.7000000000114 1206.7000000000114 1226.7000000000114 1246.7000000000114 1266.7000000000114 1286.7000000000114 1306.7000000000114 1326.7000000000114 1346.7000000000114 1366.7000000000114 1386.7000000000116 1406.7000000000116 1426.7000000000116 1446.7000000000116 1466.7000000000116 1486.7000000000116 1506.7000000000116 1526.7000000000116 1546.7000000000116 1566.7000000000116 1586.7000000000116 1606.7000000000116 1626.7000000000116 1646.7000000000116 1666.7000000000116
cb_07,3.0,enc_trial,stim,response,Miami trip,1489.4999998092678,enc_trial,1.0,3.0,t_s_06_1,travel_shared,fold-b,luggage,7.0,competing,far,paired,t_s_06_1.jpg,,travel-b1,Iceland trip,Miami trip,sub-41,1.0,1.0,1.0,1.0,0.5 0.5 0.5 0.5 0.5 0.5 0.5012520868113522 0.505008347245409 0.5062604340567612 0.5062604340567612 0.510016694490818 0.5137729549248748 0.5137729549248748 0.5137729549248748 0.5137729549248748 0.5137729549248748 0.5162771285475793 0.5162771285475793 0.5162771285475793 0.5187813021702838 0.5187813021702838 0.5212854757929883 0.5262938230383973 0.5287979966611018 0.5313021702838063 0.5363105175292153 0.5388146911519198 0.5488313856427379 0.5538397328881469 0.5563439065108514 0.5575959933222037 0.5575959933222037 0.5575959933222037 0.5588480801335559 0.5601001669449082 0.5813856427378965 0.6001669449081803 0.6402337228714524 0.6615191986644406 0.6965776293823038 0.7629382303839732 0.7842237061769616 0.7992487479131886 0.8017529215358931 0.8017529215358931 0.8017529215358931 0.8017529215358931 0.8017529215358931 0.8030050083472453 0.8042570951585976 0.8042570951585976 0.8042570951585976 0.8055091819699498 0.8092654424040067 0.8130217028380634 0.8230383973288814 0.8255425709515859 0.8292988313856426 0.8305509181969949 0.8343071786310517 0.8368113522537562 0.8380634390651085,0.8347245409015025 0.8263772954924875 0.8130217028380634 0.7979966611018364 0.7863105175292153 0.7746243739565943 0.7445742904841403 0.7078464106844742 0.686143572621035 0.654424040066778 0.5859766277128547 0.5559265442404007 0.5325542570951586 0.5191986644407345 0.5058430717863105 0.4674457429048414 0.4490818030050083 0.40901502504173626 0.3823038397328882 0.3522537562604341 0.3121869782971619 0.2938230383973289 0.27378964941569284 0.25709515859766274 0.2487479131886477 0.22370617696160267 0.21035058430717868 0.1919866444073456 0.1853088480801336 0.1836393989983306 0.1803005008347245 0.1803005008347245 0.1786310517529215 0.1769616026711185 0.1752921535893155 0.1736227045075125 0.1702838063439065 0.1602671118530885 0.1602671118530885 0.1602671118530885 0.1602671118530885 0.1569282136894825 0.1569282136894825 0.1569282136894825 0.1569282136894825 0.1569282136894825 0.1569282136894825 0.1569282136894825 0.1569282136894825 0.1552587646076795 0.1552587646076795 0.1552587646076795 0.1535893155258765 0.1519198664440734 0.1485809682804674 0.1452420701168614 0.1419031719532554 0.1419031719532554 0.14023372287145242 0.14023372287145242 0.14023372287145242 0.14023372287145242,266.90000000000873 286.90000000000873 306.90000000000873 326.90000000000873 346.9000000000088 366.9000000000088 386.9000000000088 406.9000000000088 426.9000000000088 446.9000000000088 466.9000000000088 486.9000000000088 506.9000000000088 526.9000000000087 546.9000000000087 566.9000000000087 586.9000000000087 606.9000000000087 626.9000000000087 646.9000000000087 666.9000000000087 686.9000000000087 706.9000000000087 726.9000000000087 746.9000000000087 766.9000000000087 786.9000000000087 806.9000000000087 826.9000000000087 846.9000000000087 866.9000000000087 886.9000000000087 906.9000000000087 926.9000000000087 946.9000000000087 966.9000000000087 986.9000000000087 1006.9000000000087 1026.9000000000087 1046.9000000000087 1066.9000000000087 1086.9000000000087 1106.9000000000087 1126.9000000000087 1146.9000000000087 1166.9000000000087 1186.9000000000087 1206.9000000000087 1226.9000000000087 1246.9000000000087 1266.9000000000087 1286.9000000000087 1306.9000000000087 1326.9000000000087 1346.9000000000087 1366.9000000000087 1386.900000000009 1406.900000000009 1426.900000000009 1446.900000000009 1466.900000000009 1486.900000000009
cb_07,4.0,enc_trial,stim,response,Iceland trip,1410.3999999999942,enc_trial,1.0,4.0,t_i_11_2,travel_Iceland,fold-d,headlamp,7.0,unique,far,paired,t_i_11_2.jpg,Iceland,travel-b1,Iceland trip,Miami trip,sub-41,1.0,1.0,1.0,1.0,0.5025041736227045 0.5025041736227045 0.5025041736227045 0.5012520868113522 0.5012520868113522 0.4987479131886478 0.4974958263772955 0.4937395659432388 0.4924874791318865 0.489983305509182 0.4862270450751252 0.4787145242070117 0.4762103505843072 0.4724540901502504 0.4712020033388982 0.4699499165275459 0.4674457429048414 0.4674457429048414 0.4674457429048414 0.4674457429048414 0.4661936560934892 0.4586811352253756 0.4499165275459098 0.4373956594323873 0.4348914858096828 0.4323873121869783 0.4323873121869783 0.4323873121869783 0.4323873121869783 0.4323873121869783 0.4323873121869783 0.4323873121869783 0.4323873121869783 0.4323873121869783 0.4323873121869783 0.4323873121869783 0.4323873121869783 0.4323873121869783 0.4311352253756261 0.4186143572621035 0.3973288814691152 0.3447412353923205 0.3272120200333889 0.3059265442404007 0.2871452420701168 0.26836393989983304 0.2370617696160267 0.2320534223706177 0.22454090150250414 0.2182804674457429 0.2120200333889816 0.1932387312186978 0.18697829716193654 0.18071786310517526 0.17445742904841402 0.1719532554257095 0.16819699499165275 0.16819699499165275 0.16694490818030047 0.16569282136894822 0.16193656093489148 0.15442404006677796 0.15317195325542568,0.8497495826377295 0.8497495826377295 0.8480801335559265 0.8480801335559265 0.8464106844741235 0.8347245409015025 0.8096828046744574 0.7879799666110183 0.7679465776293823 0.7429048414023371 0.7128547579298832 0.649415692821369 0.6176961602671118 0.5859766277128547 0.5592654424040067 0.5342237061769616 0.4841402337228714 0.4674457429048414 0.4574290484140233 0.4507512520868113 0.4490818030050083 0.4290484140233721 0.4223706176961601 0.43071786310517535 0.4390651085141904 0.4390651085141904 0.4390651085141904 0.4390651085141904 0.4390651085141904 0.4390651085141904 0.4390651085141904 0.4390651085141904 0.4390651085141904 0.4390651085141904 0.4390651085141904 0.4390651085141904 0.4390651085141904 0.4390651085141904 0.4390651085141904 0.4290484140233721 0.39565943238731216 0.3372287145242069 0.3138564273789649 0.2888146911519198 0.26544240400667785 0.25041736227045075 0.22370617696160267 0.22036727879799667 0.21368948247078468 0.2070116861435725 0.20033388981636047 0.1903171953255426 0.1853088480801336 0.1786310517529215 0.1736227045075125 0.1686143572621035 0.1669449081803005 0.1669449081803005 0.1669449081803005 0.1636060100166945 0.1619365609348915 0.1519198664440734 0.1519198664440734,132.89999999999418 152.89999999999418 172.8999999999942 192.89999999999415 212.89999999999415 232.89999999999415 252.89999999999415 272.8999999999942 292.8999999999942 312.8999999999942 332.8999999999942 352.8999999999942 372.8999999999942 392.8999999999942 412.8999999999942 432.8999999999942 452.8999999999942 472.8999999999942 492.8999999999942 512.8999999999942 532.8999999999942 552.8999999999942 572.8999999999943 592.8999999999943 612.8999999999943 632.8999999999943 652.8999999999943 672.8999999999943 692.8999999999942 712.8999999999942 732.8999999999942 752.8999999999942 772.8999999999942 792.8999999999942 812.8999999999942 832.8999999999942 852.8999999999942 872.8999999999942 892.8999999999942 912.8999999999942 932.8999999999942 952.8999999999942 972.8999999999942 992.8999999999942 1012.8999999999942 1032.8999999999942 1052.8999999999942 1072.8999999999942 1092.8999999999942 1112.8999999999942 1132.8999999999942 1152.8999999999942 1172.8999999999942 1192.8999999999942 1212.8999999999942 1232.8999999999942 1252.8999999999942 1272.8999999999942 1292.8999999999942 1312.8999999999942 1332.8999999999942 1352.8999999999942 1372.8999999999942
cb_07,5.0,enc_trial,stim,response,Iceland trip,1046.7999999046297,enc_trial,1.0,5.0,t_s_18_2,travel_shared,fold-a,first aid kit,7.0,competing,close,paired,t_s_18_2.jpg,,travel-b1,Iceland trip,Miami trip,sub-41,0.0,0.0,0.0,0.0,0.4974958263772955 0.4974958263772955 0.4962437395659433 0.4949916527545911 0.4874791318864775 0.4762103505843072 0.43989983305509184 0.4136060100166945 0.3823038397328881 0.3372287145242069 0.28213689482470783 0.258347245409015 0.2370617696160267 0.22203672787979964 0.20826377295492485 0.18948247078464106 0.1857262103505843 0.17696160267111852 0.1719532554257095 0.16068447412353926 0.14315525876460766 0.1368948247078464 0.13313856427378964 0.13188647746243734 0.12813021702838062,0.8313856427378965 0.8146911519198664 0.7896494156928213 0.7612687813021703 0.7178631051752922 0.6527545909849749 0.5208681135225376 0.4641068447412354 0.4006677796327212 0.340567612687813 0.27712854757929883 0.25709515859766274 0.2370617696160268 0.22203672787979967 0.21035058430717868 0.1919866444073456 0.1853088480801336 0.1803005008347245 0.1769616026711185 0.1686143572621035 0.1552587646076795 0.1502504173622704 0.1485809682804674 0.1469115191986644 0.1452420701168614,383.0 403.0 423.0 443.0 463.0 483.0 503.0 523.0 543.0 563.0 583.0 603.0 623.0 643.0 663.0 683.0 703.0 723.0 743.0 763.0 783.0 803.0 823.0 843.0 863.0
cb_07,6.0,enc_trial,stim,response,Miami trip,1251.3000000000031,enc_trial,1.0,6.0,t_m_10_1,travel_Miami,fold-e-single,tanktop,7.0,unique,,single,t_m_10_1.jpg,Miami,travel-b1,Iceland trip,Miami trip,sub-41,1.0,,1.0,,0.4987479131886478 0.4987479131886478 0.4987479131886478 0.4987479131886478 0.4987479131886478 0.4987479131886478 0.4987479131886478 0.4987479131886478 0.4987479131886478 0.4987479131886478 0.4987479131886478 0.5075125208681135 0.5250417362270451 0.5538397328881469 0.6076794657762938 0.6577629382303839 0.6765442404006677 0.6990818030050083 0.7116026711185308 0.7216193656093488 0.7266277128547579 0.7278797996661102 0.7328881469115192 0.7366444073455759 0.7378964941569282 0.7391485809682804 0.7404006677796326 0.7404006677796326 0.7404006677796326 0.7416527545909849 0.7479131886477461 0.7541736227045075 0.7629382303839732 0.7792153589315526 0.7867278797996661 0.7967445742904841 0.8030050083472453 0.8105175292153589 0.8167779632721202 0.8242904841402336 0.8267946577629381 0.8343071786310517 0.835559265442404 0.835559265442404 0.8393155258764607,0.8380634390651085 0.8363939899833055 0.8313856427378965 0.8280467445742905 0.8280467445742905 0.8263772954924875 0.8263772954924875 0.8263772954924875 0.8263772954924875 0.8263772954924875 0.8213689482470785 0.7929883138564273 0.7545909849749582 0.6911519198664441 0.5742904841402336 0.43739565943238734 0.3706176961602671 0.3105175292153589 0.27378964941569284 0.2520868113522537 0.23038397328881466 0.22036727879799667 0.20033388981636047 0.1886477462437396 0.1836393989983306 0.1719532554257095 0.1702838063439065 0.1686143572621035 0.1669449081803005 0.1652754590984975 0.1619365609348915 0.1585976627712855 0.1569282136894825 0.1535893155258765 0.1502504173622704 0.1452420701168614 0.14023372287145242 0.13522537562604342 0.13355592654424042 0.12687813021702846 0.12520868113522546 0.12186978297161932 0.12020033388981632 0.12020033388981632 0.12020033388981632,366.1000000000058 386.1000000000058 406.1000000000058 426.1000000000058 446.1000000000058 466.1000000000058 486.1000000000058 506.1000000000058 526.1000000000058 546.1000000000058 566.1000000000057 586.1000000000057 606.1000000000057 626.1000000000057 646.1000000000057 666.1000000000057 686.1000000000057 706.1000000000058 726.1000000000058 746.1000000000058 766.1000000000058 786.1000000000058 806.1000000000058 826.1000000000058 846.1000000000058 866.1000000000058 886.1000000000058 906.1000000000058 926.1000000000058 946.1000000000058 966.1000000000058 986.1000000000058 1006.1000000000058 1026.1000000000058 1046.1000000000058 1066.1000000000058 1086.1000000000058 1106.1000000000058 1126.1000000000058 1146.1000000000058 1166.1000000000058 1186.1000000000058 1206.1000000000058 1226.1000000000058 1246.1000000000058
cb_07,7.0,enc_trial,stim,response,Miami trip,1245.3000000953614,enc_trial,1.0,7.0,t_s_21_1,travel_shared,fold-b,umbrella,7.0,competing,far,paired,t_s_21_1.jpg,,travel-b1,Iceland trip,Miami trip,sub-41,0.0,0.0,1.0,1.0,0.4962437395659433 0.4962437395659433 0.4912353923205342 0.4887312186978297 0.4837228714524207 0.4661936560934892 0.4536727879799666 0.4411519198664441 0.43363939899833054 0.4311352253756261 0.4248747913188648 0.41110183639399 0.40609348914858096 0.3960767946577629 0.3935726210350584 0.4298831385642738 0.4649415692821369 0.4987479131886478 0.5350584307178631 0.5876460767946577 0.6590150250417361 0.776711185308848 0.8180300500834724 0.8242904841402336 0.8267946577629381 0.8267946577629381 0.8267946577629381 0.8292988313856426 0.835559265442404 0.8393155258764607 0.8480801335559265 0.8543405676126877 0.8593489148580967 0.8618530884808013,0.8464106844741235 0.8447412353923205 0.8347245409015025 0.8230383973288815 0.8080133555926544 0.7562604340567612 0.7228714524207012 0.6928213689482471 0.662771285475793 0.6293823038397328 0.5943238731218699 0.5125208681135225 0.4908180300500835 0.4474123539232053 0.3622704507512521 0.26544240400667785 0.23539232053422365 0.22036727879799667 0.20367278797996646 0.1919866444073456 0.1786310517529215 0.1552587646076795 0.1485809682804674 0.1469115191986644 0.1469115191986644 0.1469115191986644 0.1469115191986644 0.1469115191986644 0.1469115191986644 0.1469115191986644 0.1469115191986644 0.1469115191986644 0.1469115191986644 0.1469115191986644,250.3999999999941 270.39999999999407 290.3999999999941 310.3999999999941 330.3999999999941 350.3999999999941 370.3999999999941 390.3999999999941 410.3999999999941 430.3999999999941 450.3999999999941 470.3999999999941 490.3999999999941 510.3999999999941 530.3999999999942 550.3999999999942 570.3999999999943 590.3999999999943 610.3999999999943 630.3999999999943 650.3999999999943 670.3999999999943 690.3999999999942 710.3999999999942 730.3999999999942 750.3999999999942 770.3999999999942 790.3999999999942 810.3999999999942 830.3999999999942 850.3999999999942 870.3999999999942 890.3999999999942 910.3999999999942
cb_07,8.0,enc_trial,stim,response,Miami trip,1512.299999809271,enc_trial,1.0,8.0,t_m_06_2,travel_Miami,fold-c,handheld fan,7.0,unique,close,paired,t_m_06_2.jpg,Miami,travel-b1,Iceland trip,Miami trip,sub-41,1.0,1.0,1.0,1.0,0.4974958263772955 0.4974958263772955 0.4962437395659433 0.4962437395659433 0.4949916527545911 0.4949916527545911 0.4937395659432388 0.4912353923205342 0.4912353923205342 0.4887312186978297 0.4824707846410685 0.479966611018364 0.4787145242070117 0.4774624373956594 0.4774624373956594 0.4774624373956594 0.4774624373956594 0.4774624373956594 0.4774624373956594 0.4774624373956594 0.4774624373956594 0.4774624373956594 0.4774624373956594 0.4774624373956594 0.4774624373956594 0.4774624373956594 0.4774624373956594 0.4762103505843072 0.4762103505843072 0.4749582637729549 0.4712020033388982 0.4712020033388982 0.4712020033388982 0.4712020033388982 0.4712020033388982 0.4661936560934892 0.4574290484140234 0.4424040066777963 0.42612687813021705 0.3898163606010017 0.3459933222036728 0.32220367278798 0.3009181969949916 0.2833889816360601 0.27712854757929883 0.27086811352253753 0.27086811352253753 0.27086811352253753 0.27086811352253753 0.27086811352253753 0.31343906510851416 0.4148580968280468 0.5325542570951586 0.6502504173622704 0.7616861435726209 0.9156928213689484 0.9482470784641068 0.9620200333889816 0.9632721202003338 0.9632721202003338 0.9632721202003338 0.9632721202003338 0.9632721202003338 0.9632721202003338 0.9632721202003338 0.9632721202003338 0.9632721202003338 0.9632721202003338 0.9632721202003338 0.9607679465776292 0.8994156928213689 0.8856427378964941 0.8831385642737896 0.8818864774624373,0.8447412353923205 0.8397328881469115 0.8313856427378965 0.8213689482470785 0.8063439065108514 0.7679465776293823 0.7462437395659433 0.7178631051752922 0.6894824707846411 0.6360601001669449 0.5776293823038398 0.5692821368948247 0.5692821368948247 0.5692821368948247 0.5692821368948247 0.5692821368948247 0.5692821368948247 0.5692821368948247 0.5692821368948247 0.5692821368948247 0.5692821368948247 0.5692821368948247 0.5692821368948247 0.5692821368948247 0.5692821368948247 0.5692821368948247 0.5692821368948247 0.5692821368948247 0.5692821368948247 0.5692821368948247 0.5626043405676127 0.5492487479131887 0.5258764607679466 0.5041736227045075 0.4808013355592654 0.4440734557595993 0.4223706176961601 0.3973288814691152 0.3756260434056762 0.340567612687813 0.3071786310517529 0.29215358931552593 0.27712854757929883 0.26544240400667785 0.2587646076794657 0.25375626043405675 0.25375626043405675 0.25375626043405675 0.25375626043405675 0.25375626043405675 0.2253756260434057 0.1953255425709516 0.1769616026711185 0.1602671118530885 0.1485809682804674 0.1452420701168614 0.1452420701168614 0.1452420701168614 0.1452420701168614 0.1452420701168614 0.1452420701168614 0.1452420701168614 0.1452420701168614 0.1452420701168614 0.1452420701168614 0.1452420701168614 0.1452420701168614 0.1452420701168614 0.1452420701168614 0.1452420701168614 0.1435726210350584 0.1419031719532554 0.13856427378964942 0.13856427378964942,0.0 20.0 40.0 60.0 80.0 100.0 120.0 140.0 160.0 180.0 200.0 220.0 240.0 260.0 280.0 300.0 320.0 340.0 360.0 380.0 400.0 420.0 440.0 460.0 480.0 500.0 520.0 540.0 560.0 580.0 600.0 620.0 640.0 660.0 680.0 700.0 720.0 740.0 760.0 780.0 800.0 820.0 840.0 860.0 880.0 900.0 920.0 940.0 960.0 980.0 1000.0 1020.0 1040.0 1060.0 1080.0 1100.0 1120.0 1140.0 1160.0 1180.0 1200.0 1220.0 1240.0 1260.0 1280.0 1300.0 1320.0 1340.0 1360.0 1380.0 1400.0 1420.0 1440.0 1460.0
cb_07,9.0,enc_trial,stim,response,Miami trip,1015.5000000000148,enc_trial,1.0,9.0,t_s_22_1,travel_shared,fold-a,belt,7.0,competing,close,paired,t_s_22_1.jpg,,travel-b1,Iceland trip,Miami trip,sub-41,1.0,1.0,1.0,0.0,0.5 0.5 0.5 0.5 0.5 0.4987479131886478 0.4962437395659433 0.4962437395659433 0.4962437395659433 0.5012520868113522 0.5112687813021702 0.5150250417362271 0.510016694490818 0.5012520868113522 0.4824707846410685 0.4599332220367279 0.4136060100166945 0.3898163606010017 0.3710350584307179 0.3572621035058431 0.3459933222036728 0.33848080133555924 0.3372287145242069 0.3372287145242069 0.3372287145242069 0.3397328881469115 0.3735392320534224 0.4386477462437396 0.5613522537562604 0.6803005008347245 0.7704507512520867 0.8430717863105175 0.8656093489148581 0.8693656093489148 0.8693656093489148 0.8693656093489148 0.8693656093489148 0.8693656093489148 0.8706176961602671 0.8718697829716193 0.8743739565943238 0.8756260434056761,0.8414023372287145 0.8414023372287145 0.8414023372287145 0.8380634390651085 0.8330550918196995 0.8196994991652755 0.7796327212020033 0.7595993322203672 0.7278797996661102 0.6878130217028381 0.6243739565943238 0.5041736227045075 0.4123539232053423 0.3789649415692822 0.3138564273789649 0.27212020033388984 0.21702838063439067 0.1953255425709516 0.1786310517529215 0.1702838063439065 0.1636060100166945 0.1636060100166945 0.1636060100166945 0.1636060100166945 0.1636060100166945 0.1669449081803005 0.1786310517529215 0.1786310517529215 0.1786310517529215 0.1786310517529215 0.1686143572621035 0.1519198664440734 0.1502504173622704 0.1502504173622704 0.1502504173622704 0.1502504173622704 0.1502504173622704 0.1502504173622704 0.1502504173622704 0.1502504173622704 0.1502504173622704 0.1502504173622704,149.5 169.5 189.5 209.5 229.5 249.5 269.5 289.5 309.5 329.5 349.5 369.5 389.5 409.5 429.5 449.5 469.5 489.5 509.5 529.5 549.5 569.5 589.5 609.5 629.5 649.5 669.5 689.5 709.5 729.5 749.5 769.5 789.5 809.5 829.5 849.5 869.5 889.5 909.5 929.5 949.5 969.5
cb_07,10.0,enc_trial,stim,response,Miami trip,885.0999998092592,enc_trial,1.0,10.0,t_m_03_1,travel_Miami,fold-c,wetsuit,7.0,unique,close,paired,t_m_03_1.jpg,Miami,travel-b1,Iceland trip,Miami trip,sub-41,1.0,1.0,1.0,1.0,0.5012520868113522 0.5062604340567612 0.5212854757929883 0.5475792988313857 0.5826377295492488 0.6189482470784641 0.6665275459098496 0.6928213689482471 0.7065943238731218 0.7153589315525876 0.7216193656093488 0.7441569282136894 0.7641903171953255 0.7879799666110183 0.8092654424040067 0.8280467445742904 0.8518363939899832 0.8618530884808013 0.8631051752921536 0.8643572621035058 0.8643572621035058 0.8668614357262103 0.8693656093489148 0.8706176961602671,0.8130217028380634 0.7629382303839733 0.667779632721202 0.5626043405676127 0.4507512520868113 0.3505843071786311 0.24207011686143576 0.19365609348914856 0.1786310517529215 0.1719532554257095 0.1686143572621035 0.1619365609348915 0.1535893155258765 0.1452420701168614 0.1435726210350584 0.13689482470784642 0.12854757929883145 0.12353923205342232 0.12353923205342232 0.12353923205342232 0.12353923205342232 0.12353923205342232 0.12353923205342232 0.12353923205342232,399.7999999999884 419.7999999999884 439.7999999999884 459.7999999999884 479.7999999999884 499.7999999999884 519.7999999999884 539.7999999999884 559.7999999999884 579.7999999999884 599.7999999999884 619.7999999999884 639.7999999999884 659.7999999999884 679.7999999999884 699.7999999999884 719.7999999999884 739.7999999999884 759.7999999999884 779.7999999999884 799.7999999999884 819.7999999999884 839.7999999999884 859.7999999999884
cb_07,11.0,enc_trial,stim,response,Iceland trip,1262.6999999046386,enc_trial,1.0,11.0,t_i_06_1,travel_Iceland,fold-d,knit hat,7.0,unique,far,paired,t_i_06_1.jpg,Iceland,travel-b1,Iceland trip,Miami trip,sub-41,1.0,1.0,1.0,1.0,0.4787145242070117 0.4774624373956594 0.4774624373956594 0.4762103505843072 0.4661936560934892 0.43614357262103504 0.32470784641068445 0.2871452420701168 0.23330550918197 0.20575959933222035 0.19699499165275453 0.19699499165275453 0.19699499165275453 0.19699499165275453 0.19699499165275453 0.19699499165275453 0.19949916527545908 0.2020033388981636 0.20325542570951585 0.2045075125208681 0.2020033388981636 0.19449081803005008 0.17696160267111852 0.1556761268781302 0.13814691151919864 0.13188647746243734 0.12938230383973287 0.12938230383973287,0.8347245409015025 0.8330550918196995 0.8330550918196995 0.8313856427378965 0.7996661101836394 0.7061769616026712 0.5108514190317195 0.4457429048414023 0.3522537562604341 0.2904841402337228 0.26377295492487474 0.23873121869782976 0.23873121869782976 0.23873121869782976 0.23873121869782976 0.2320534223706177 0.21368948247078468 0.21035058430717868 0.2070116861435725 0.19699499165275453 0.1736227045075125 0.1636060100166945 0.1535893155258765 0.14023372287145242 0.12854757929883145 0.12854757929883145 0.12854757929883145 0.12687813021702846,633.1000000000057 653.1000000000057 673.1000000000057 693.1000000000058 713.1000000000058 733.1000000000058 753.1000000000058 773.1000000000058 793.1000000000058 813.1000000000058 833.1000000000058 853.1000000000058 873.1000000000058 893.1000000000058 913.1000000000056 933.1000000000056 953.1000000000056 973.1000000000056 993.1000000000056 1013.1000000000056 1033.1000000000058 1053.1000000000058 1073.1000000000058 1093.1000000000058 1113.1000000000058 1133.1000000000058 1153.1000000000058 1173.1000000000058
cb_07,12.0,enc_trial,stim,response,Miami trip,1241.2999999046294,enc_trial,1.0,12.0,t_m_06_1,travel_Miami,fold-c,handheld fan,7.0,unique,close,paired,t_m_06_1.jpg,Miami,travel-b1,Iceland trip,Miami trip,sub-41,1.0,1.0,1.0,1.0,0.5037562604340567 0.5037562604340567 0.5037562604340567 0.5012520868113522 0.5012520868113522 0.4962437395659433 0.4924874791318865 0.4912353923205342 0.4874791318864775 0.4874791318864775 0.4874791318864775 0.4874791318864775 0.4962437395659433 0.5025041736227045 0.5037562604340567 0.5450751252086812 0.5676126878130217 0.5826377295492488 0.5976627712854758 0.6139398998330551 0.6865609348914857 0.7341402337228714 0.756677796327212 0.7779632721202002 0.7854757929883138 0.7954924874791318 0.7954924874791318 0.7954924874791318 0.7954924874791318 0.7954924874791318 0.7954924874791318 0.7954924874791318 0.7954924874791318 0.7954924874791318 0.8030050083472453 0.8343071786310517 0.8468280467445742 0.8593489148580967 0.8693656093489148 0.8731218697829716 0.8743739565943238 0.8768781302170283 0.8781302170283806,0.8247078464106845 0.8030050083472454 0.7762938230383973 0.7195325542570952 0.659432387312187 0.5792988313856428 0.5626043405676127 0.5409015025041737 0.5041736227045075 0.4724540901502504 0.43739565943238734 0.4207011686143573 0.40233722871452415 0.3823038397328882 0.3639398998330551 0.2370617696160268 0.21702838063439067 0.20868113522537568 0.20033388981636047 0.19365609348914856 0.1752921535893155 0.1669449081803005 0.1669449081803005 0.1669449081803005 0.1669449081803005 0.1669449081803005 0.1669449081803005 0.1669449081803005 0.1669449081803005 0.1669449081803005 0.1669449081803005 0.1669449081803005 0.1669449081803005 0.1669449081803005 0.1636060100166945 0.1419031719532554 0.13856427378964942 0.13355592654424042 0.13021702838063445 0.13021702838063445 0.13021702838063445 0.13021702838063445 0.13021702838063445,350.3999999999942 370.3999999999942 390.3999999999942 410.3999999999942 430.3999999999942 450.3999999999942 470.3999999999942 490.3999999999942 510.3999999999942 530.3999999999942 550.3999999999942 570.3999999999943 590.3999999999943 610.3999999999943 630.3999999999943 650.3999999999943 670.3999999999943 690.3999999999942 710.3999999999942 730.3999999999942 750.3999999999942 770.3999999999942 790.3999999999942 810.3999999999942 830.3999999999942 850.3999999999942 870.3999999999942 890.3999999999942 910.3999999999942 930.3999999999942 950.3999999999942 970.3999999999942 990.3999999999942 1010.3999999999942 1030.3999999999942 1050.3999999999942 1070.3999999999942 1090.3999999999942 1110.3999999999942 1130.3999999999942 1150.3999999999942 1170.3999999999942 1190.3999999999942
cb_07,13.0,enc_trial,stim,response,Miami trip,1116.700000190729,enc_trial,1.0,13.0,t_m_03_2,travel_Miami,fold-c,wetsuit,7.0,unique,close,paired,t_m_03_2.jpg,Miami,travel-b1,Iceland trip,Miami trip,sub-41,1.0,1.0,1.0,1.0,0.5025041736227045 0.5025041736227045 0.5012520868113522 0.5 0.5 0.4974958263772955 0.4937395659432388 0.4837228714524207 0.4724540901502504 0.4674457429048414 0.4674457429048414 0.4674457429048414 0.4674457429048414 0.4674457429048414 0.4674457429048414 0.4674457429048414 0.4674457429048414 0.4674457429048414 0.4674457429048414 0.4674457429048414 0.4674457429048414 0.4674457429048414 0.4674457429048414 0.4674457429048414 0.4699499165275459 0.5776293823038398 0.6627712854757929 0.7291318864774624 0.7879799666110183 0.8305509181969949 0.8781302170283806 0.8856427378964941 0.8956594323873122 0.9031719532554257 0.9081803005008346 0.914440734557596 0.9169449081803004 0.9169449081803004,0.8063439065108514 0.7846410684474123 0.7595993322203672 0.7362270450751252 0.7195325542570952 0.6377295492487479 0.5943238731218699 0.5509181969949917 0.5158597662771285 0.5025041736227045 0.5025041736227045 0.5025041736227045 0.5025041736227045 0.5025041736227045 0.5025041736227045 0.5025041736227045 0.5025041736227045 0.5025041736227045 0.5025041736227045 0.5025041736227045 0.5025041736227045 0.5025041736227045 0.5025041736227045 0.5025041736227045 0.4908180300500835 0.3639398998330551 0.2871452420701168 0.23372287145242066 0.1953255425709516 0.1752921535893155 0.1552587646076795 0.1519198664440734 0.1485809682804674 0.1452420701168614 0.1419031719532554 0.14023372287145242 0.13856427378964942 0.13689482470784642,0.0 20.0 40.0 60.0 80.0 100.0 120.0 140.0 160.0 180.0 200.0 220.0 240.0 260.0 280.0 300.0 320.0 340.0 360.0 380.0 400.0 420.0 440.0 460.0 480.0 500.0 520.0 540.0 560.0 580.0 600.0 620.0 640.0 660.0 680.0 700.0 720.0 740.0
cb_07,14.0,enc_trial,stim,response,Iceland trip,1267.8999999999942,enc_trial,1.0,14.0,t_s_22_2,travel_shared,fold-a,belt,7.0,competing,close,paired,t_s_22_2.jpg,,travel-b1,Iceland trip,Miami trip,sub-41,1.0,1.0,1.0,0.0,0.4937395659432388 0.4937395659432388 0.4937395659432388 0.4949916527545911 0.4949916527545911 0.4974958263772955 0.4987479131886478 0.4987479131886478 0.5012520868113522 0.5037562604340567 0.5125208681135225 0.5162771285475793 0.5212854757929883 0.5262938230383973 0.5287979966611018 0.5388146911519198 0.5450751252086812 0.5538397328881469 0.5613522537562604 0.5713689482470785 0.5763772954924875 0.5763772954924875 0.5751252086811353 0.5651085141903172 0.5450751252086812 0.5275459098497496 0.5212854757929883 0.505008347245409 0.4812186978297162 0.4474123539232053 0.3848080133555927 0.3585141903171953 0.3459933222036728 0.34223706176961605 0.34223706176961605 0.3146911519198664 0.2858931552587646 0.26085141903171954 0.243322203672788 0.2370617696160267 0.2120200333889816 0.1907345575959933 0.16819699499165275 0.15191986644407346 0.14065108514190314 0.1368948247078464 0.1368948247078464 0.13564273789649414 0.13313856427378964 0.13188647746243734 0.12813021702838062 0.12687813021702835,0.8363939899833055 0.8313856427378965 0.8247078464106845 0.8196994991652755 0.8113522537562604 0.7946577629382303 0.7929883138564273 0.7896494156928213 0.7846410684474123 0.7779632721202003 0.7445742904841403 0.7328881469115192 0.7178631051752922 0.6994991652754591 0.684474123539232 0.6210350584307178 0.5893155258764607 0.5542570951585977 0.5175292153589315 0.4858096828046744 0.4557595993322203 0.4490818030050083 0.43739565943238734 0.4207011686143573 0.3906510851419032 0.340567612687813 0.333889816360601 0.3188647746243739 0.3055091819699499 0.2904841402337228 0.27879799666110183 0.27045075125208684 0.26544240400667785 0.26377295492487474 0.26377295492487474 0.26377295492487474 0.26377295492487474 0.26377295492487474 0.2554257095158597 0.25041736227045075 0.23539232053422365 0.22203672787979967 0.21368948247078468 0.2070116861435725 0.1986644407345576 0.1869782971619366 0.1819699499165276 0.1786310517529215 0.1719532554257095 0.1669449081803005 0.1602671118530885 0.1569282136894825,16.699999999982538 36.69999999998254 56.69999999998254 76.69999999998255 96.69999999998255 116.69999999998255 136.69999999998254 156.69999999998254 176.69999999998254 196.69999999998254 216.69999999998254 236.69999999998254 256.69999999998254 276.69999999998254 296.6999999999825 316.6999999999825 336.6999999999825 356.69999999998254 376.69999999998254 396.69999999998254 416.69999999998254 436.69999999998254 456.69999999998254 476.69999999998254 496.69999999998254 516.6999999999825 536.6999999999825 556.6999999999825 576.6999999999825 596.6999999999825 616.6999999999825 636.6999999999825 656.6999999999825 676.6999999999825 696.6999999999824 716.6999999999824 736.6999999999824 756.6999999999824 776.6999999999824 796.6999999999824 816.6999999999824 836.6999999999824 856.6999999999824 876.6999999999824 896.6999999999824 916.6999999999823 936.6999999999823 956.6999999999823 976.6999999999823 996.6999999999823 1016.6999999999823 1036.6999999999823
cb_07,15.0,enc_trial,stim,response,Miami trip,903.0999998092592,enc_trial,1.0,15.0,t_m_05_1,travel_Miami,fold-d,sunscreen,7.0,unique,far,paired,t_m_05_1.jpg,Miami,travel-b1,Iceland trip,Miami trip,sub-41,1.0,1.0,1.0,1.0,0.5 0.5112687813021702 0.5212854757929883 0.5338063439065108 0.5500834724540902 0.5676126878130217 0.6252086811352254 0.6540066777963272 0.6740400667779632 0.6978297161936561 0.7178631051752921 0.751669449081803 0.7717028380634391 0.7792153589315526 0.7804674457429048 0.7829716193656093 0.7854757929883138 0.7879799666110183 0.7904841402337228 0.7954924874791318 0.8005008347245408 0.8142737896494157 0.8192821368948247 0.8242904841402336 0.8267946577629381 0.835559265442404 0.8380634390651085 0.840567612687813 0.8418196994991652 0.8443238731218697 0.8443238731218697,0.8213689482470785 0.7896494156928213 0.7595993322203672 0.7262103505843072 0.667779632721202 0.6143572621035058 0.4507512520868113 0.39232053422370616 0.3622704507512521 0.3372287145242069 0.3155258764607679 0.28046744574290483 0.2587646076794657 0.2520868113522537 0.25041736227045075 0.2487479131886477 0.2454090150250417 0.24207011686143576 0.23873121869782976 0.23372287145242066 0.22704507512520866 0.2020033388981636 0.19365609348914856 0.1853088480801336 0.1752921535893155 0.1652754590984975 0.1619365609348915 0.1619365609348915 0.1602671118530885 0.1585976627712855 0.1569282136894825,316.5 336.5 356.5 376.5 396.5 416.5 436.5 456.5 476.5 496.5 516.5 536.5 556.5 576.5 596.5 616.5 636.5 656.5 676.5 696.5 716.5 736.5 756.5 776.5 796.5 816.5 836.5 856.5 876.5 896.5 916.5
cb_07,16.0,enc_trial,stim,response,Iceland trip,1423.3999999999942,enc_trial,1.0,16.0,t_s_06_2,travel_shared,fold-b,luggage,7.0,competing,far,paired,t_s_06_2.jpg,,travel-b1,Iceland trip,Miami trip,sub-41,1.0,1.0,1.0,1.0,0.5012520868113522 0.5012520868113522 0.5087646076794657 0.5162771285475793 0.5300500834724541 0.5613522537562604 0.6327212020033389 0.6577629382303839 0.6640233722871451 0.6790484140233722 0.6978297161936561 0.7116026711185308 0.7366444073455759 0.7616861435726209 0.7804674457429048 0.8005008347245408 0.8155258764607679 0.8155258764607679 0.8155258764607679 0.8155258764607679 0.8167779632721202 0.8205342237061769 0.8205342237061769 0.8205342237061769 0.8217863105175292 0.8242904841402336 0.8280467445742904 0.8280467445742904 0.8280467445742904 0.8305509181969949 0.8330550918196994 0.8343071786310517 0.8343071786310517 0.8343071786310517 0.8343071786310517 0.835559265442404 0.7967445742904841 0.6978297161936561 0.6151919866444073 0.5287979966611018 0.3973288814691152 0.35225375626043404 0.3234557595993322 0.30342237061769617 0.28839732888146913 0.2783806343906511 0.26335559265442404 0.2508347245409015 0.23831385642737896 0.2370617696160267 0.2370617696160267 0.2257929883138564 0.21327212020033387 0.19949916527545908 0.18697829716193654 0.18071786310517526 0.169449081803005 0.16318864774624373 0.15943238731218695,0.8363939899833055 0.8347245409015025 0.8213689482470785 0.7929883138564273 0.7462437395659433 0.6460767946577629 0.4624373956594324 0.4290484140233721 0.4207011686143573 0.4006677796327212 0.3622704507512521 0.325542570951586 0.27212020033388984 0.23038397328881466 0.20868113522537568 0.1869782971619366 0.1769616026711185 0.1769616026711185 0.1769616026711185 0.1769616026711185 0.1769616026711185 0.1752921535893155 0.1752921535893155 0.1752921535893155 0.1752921535893155 0.1719532554257095 0.1702838063439065 0.1702838063439065 0.1702838063439065 0.1686143572621035 0.1669449081803005 0.1669449081803005 0.1669449081803005 0.1669449081803005 0.1669449081803005 0.1669449081803005 0.1585976627712855 0.13689482470784642 0.13021702838063445 0.12186978297161932 0.10517529215358934 0.09515859766277124 0.09348914858096824 0.09348914858096824 0.09348914858096824 0.09348914858096824 0.09348914858096824 0.09348914858096824 0.09682804674457424 0.09682804674457424 0.09682804674457424 0.10183639398998334 0.10350584307178634 0.10684474123539234 0.10684474123539234 0.11018363939899832 0.11018363939899832 0.11018363939899832 0.11018363939899832,200.29999999998842 220.29999999998842 240.29999999998842 260.2999999999884 280.2999999999884 300.29999999998836 320.29999999998836 340.29999999998836 360.2999999999884 380.2999999999884 400.2999999999884 420.2999999999884 440.2999999999884 460.2999999999884 480.2999999999884 500.2999999999884 520.2999999999884 540.2999999999884 560.2999999999884 580.2999999999884 600.2999999999884 620.2999999999884 640.2999999999884 660.2999999999884 680.2999999999884 700.2999999999884 720.2999999999884 740.2999999999884 760.2999999999884 780.2999999999884 800.2999999999884 820.2999999999884 840.2999999999884 860.2999999999884 880.2999999999884 900.2999999999884 920.2999999999884 940.2999999999884 960.2999999999884 980.2999999999884 1000.2999999999884 1020.2999999999884 1040.2999999999884 1060.2999999999884 1080.2999999999884 1100.2999999999884 1120.2999999999884 1140.2999999999886 1160.2999999999886 1180.2999999999886 1200.2999999999886 1220.2999999999886 1240.2999999999886 1260.2999999999886 1280.2999999999886 1300.2999999999886 1320.2999999999886 1340.2999999999886 1360.2999999999886
cb_07,17.0,enc_trial,stim,response,Iceland trip,1186.4999998092535,enc_trial,1.0,17.0,t_i_14_1,travel_Iceland,fold-c,snow pants,7.0,unique,close,paired,t_i_14_1.jpg,Iceland,travel-b1,Iceland trip,Miami trip,sub-41,1.0,1.0,1.0,1.0,0.4962437395659433 0.4962437395659433 0.4962437395659433 0.4962437395659433 0.4962437395659433 0.4962437395659433 0.4962437395659433 0.4962437395659433 0.4962437395659433 0.4962437395659433 0.4962437395659433 0.4962437395659433 0.4974958263772955 0.5012520868113522 0.510016694490818 0.5187813021702838 0.5350584307178631 0.5475792988313857 0.5601001669449082 0.5701168614357263 0.578881469115192 0.5964106844741236 0.6164440734557596 0.6252086811352254 0.6865609348914857 0.7353923205342237 0.8305509181969949 0.8656093489148581 0.8843906510851418 0.8881469115191986 0.8881469115191986 0.8881469115191986 0.8881469115191986 0.8881469115191986 0.8781302170283806 0.8543405676126877 0.7704507512520867 0.6990818030050083 0.6039232053422371 0.5162771285475793 0.4574290484140234 0.3898163606010017 0.34724540901502504 0.3272120200333889 0.3059265442404007 0.2846410684474123 0.2558430717863105 0.2420701168614357 0.2282971619365609 0.21452420701168606 0.19949916527545908 0.17821368948247074 0.16819699499165275 0.16444073455759595 0.15317195325542568 0.14816360601001669 0.12938230383973287 0.1231218697829716 0.12061769616026707 0.11936560934891485,0.8297161936560935 0.8280467445742905 0.8280467445742905 0.8280467445742905 0.8280467445742905 0.8263772954924875 0.8263772954924875 0.8247078464106845 0.8247078464106845 0.8196994991652755 0.8163606010016695 0.8046744574290484 0.7863105175292153 0.7779632721202003 0.7395659432387311 0.7095158597662772 0.6243739565943238 0.5893155258764607 0.5609348914858097 0.5409015025041737 0.5242070116861436 0.4891485809682805 0.4540901502504173 0.4440734557595993 0.38898163606010017 0.3522537562604341 0.2888146911519198 0.26043405676126874 0.2454090150250417 0.24207011686143576 0.24207011686143576 0.24207011686143576 0.24207011686143576 0.24207011686143576 0.23539232053422365 0.22704507512520866 0.21035058430717868 0.19699499165275453 0.1819699499165276 0.1686143572621035 0.1686143572621035 0.1686143572621035 0.1585976627712855 0.1569282136894825 0.1569282136894825 0.1569282136894825 0.1569282136894825 0.1552587646076795 0.1552587646076795 0.1552587646076795 0.1552587646076795 0.1552587646076795 0.1502504173622704 0.1485809682804674 0.1469115191986644 0.1435726210350584 0.1419031719532554 0.13856427378964942 0.13689482470784642 0.13689482470784642,0.0 20.0 40.0 60.0 80.0 100.0 120.0 140.0 160.0 180.0 200.0 220.0 240.0 260.0 280.0 300.0 320.0 340.0 360.0 380.0 400.0 420.0 440.0 460.0 480.0 500.0 520.0 540.0 560.0 580.0 600.0 620.0 640.0 660.0 680.0 700.0 720.0 740.0 760.0 780.0 800.0 820.0 840.0 860.0 880.0 900.0 920.0 940.0 960.0 980.0 1000.0 1020.0 1040.0 1060.0 1080.0 1100.0 1120.0 1140.0 1160.0 1180.0
cb_07,18.0,enc_trial,stim,response,Miami trip,1216.9000000953674,enc_trial,1.0,18.0,t_s_02_2,travel_shared,fold-b,water bottle,7.0,competing,far,paired,t_s_02_2.jpg,,travel-b1,Iceland trip,Miami trip,sub-41,0.0,0.0,0.0,1.0,0.5025041736227045 0.505008347245409 0.5162771285475793 0.5212854757929883 0.5287979966611018 0.5425709515859767 0.5851419031719532 0.6039232053422371 0.6151919866444073 0.6164440734557596 0.6164440734557596 0.6264607679465777 0.6364774624373957 0.6452420701168614 0.6527545909849749 0.6590150250417361 0.67779632721202 0.6928213689482471 0.7053422370617696 0.7178631051752921 0.7316360601001669 0.7504173622704506 0.7679465776293822 0.7792153589315526 0.7892320534223706 0.7892320534223706 0.7917362270450751 0.7954924874791318 0.7967445742904841 0.7979966611018363 0.7992487479131886 0.8130217028380634 0.8230383973288814 0.8292988313856426 0.8318030050083471 0.8380634390651085 0.8393155258764607 0.8393155258764607 0.8418196994991652 0.8430717863105175 0.8455759599332221 0.8468280467445742,0.8196994991652755 0.8063439065108514 0.7796327212020033 0.7612687813021703 0.7362270450751252 0.6961602671118531 0.5976627712854758 0.5626043405676127 0.5425709515859767 0.5392320534223707 0.5342237061769616 0.4958263772954925 0.4507512520868113 0.42570951585976624 0.4073455759599333 0.38564273789649417 0.340567612687813 0.3171953255425709 0.2971619365609349 0.27712854757929883 0.2554257095158597 0.21535893155258767 0.1786310517529215 0.1585976627712855 0.1469115191986644 0.1452420701168614 0.13689482470784642 0.13355592654424042 0.13355592654424042 0.13188647746243742 0.13188647746243742 0.13188647746243742 0.13188647746243742 0.13188647746243742 0.13188647746243742 0.13355592654424042 0.13355592654424042 0.13355592654424042 0.13355592654424042 0.13522537562604342 0.13522537562604342 0.13689482470784642,366.7999999999884 386.7999999999884 406.7999999999884 426.7999999999884 446.7999999999884 466.7999999999884 486.7999999999884 506.7999999999884 526.7999999999884 546.7999999999884 566.7999999999884 586.7999999999884 606.7999999999884 626.7999999999884 646.7999999999884 666.7999999999884 686.7999999999884 706.7999999999884 726.7999999999884 746.7999999999884 766.7999999999884 786.7999999999884 806.7999999999884 826.7999999999884 846.7999999999884 866.7999999999884 886.7999999999884 906.7999999999884 926.7999999999884 946.7999999999884 966.7999999999884 986.7999999999884 1006.7999999999884 1026.7999999999884 1046.7999999999884 1066.7999999999884 1086.7999999999884 1106.7999999999884 1126.7999999999886 1146.7999999999886 1166.7999999999886 1186.7999999999886
cb_07,19.0,enc_trial,stim,response,Iceland trip,1236.1000001907232,enc_trial,1.0,19.0,t_i_11_1,travel_Iceland,fold-d,headlamp,7.0,unique,far,paired,t_i_11_1.jpg,Iceland,travel-b1,Iceland trip,Miami trip,sub-41,1.0,1.0,1.0,1.0,0.4962437395659433 0.4974958263772955 0.505008347245409 0.5200333889816361 0.5400667779632721 0.5563439065108514 0.6051752921535893 0.6114357262103506 0.6264607679465777 0.6314691151919867 0.6327212020033389 0.6302170283806344 0.6151919866444073 0.5863939899833055 0.5450751252086812 0.4974958263772955 0.3823038397328881 0.3635225375626043 0.3121869782971619 0.2846410684474123 0.243322203672788 0.23080133555926546 0.22328881469115192 0.2182804674457429 0.2157762938230384 0.2157762938230384 0.2045075125208681 0.20075125208681133 0.1907345575959933 0.1832220367278798 0.17696160267111852 0.16569282136894822 0.15943238731218695 0.15442404006677796 0.14941569282136893 0.14565943238731216,0.8330550918196995 0.8213689482470785 0.7929883138564273 0.7445742904841403 0.686143572621035 0.647746243739566 0.5091819699499165 0.4891485809682805 0.4357262103505843 0.4173622704507513 0.3973288814691152 0.3873121869782972 0.3689482470784641 0.3505843071786311 0.333889816360601 0.3155258764607679 0.2838063439065108 0.27879799666110183 0.27045075125208684 0.2621035058430717 0.25041736227045075 0.2437395659432388 0.2404006677796328 0.2370617696160268 0.23539232053422365 0.23372287145242066 0.22203672787979967 0.22036727879799667 0.21368948247078468 0.20868113522537568 0.2020033388981636 0.19365609348914856 0.1886477462437396 0.1819699499165276 0.1803005008347245 0.1786310517529215,366.59999999997666 386.59999999997666 406.59999999997666 426.59999999997666 446.59999999997666 466.59999999997666 486.59999999997666 506.59999999997666 526.5999999999766 546.5999999999766 566.5999999999767 586.5999999999767 606.5999999999767 626.5999999999767 646.5999999999767 666.5999999999767 686.5999999999767 706.5999999999768 726.5999999999768 746.5999999999768 766.5999999999768 786.5999999999768 806.5999999999768 826.5999999999768 846.5999999999768 866.5999999999768 886.5999999999768 906.5999999999768 926.5999999999768 946.5999999999768 966.5999999999768 986.5999999999768 1006.5999999999768 1026.5999999999767 1046.5999999999767 1066.5999999999767
cb_07,20.0,enc_trial,stim,response,Miami trip,984.3000000953616,enc_trial,1.0,20.0,t_m_11_1,travel_Miami,fold-d,collapsible beach chair,7.0,unique,far,paired,t_m_11_1.jpg,Miami,travel-b1,Iceland trip,Miami trip,sub-41,1.0,1.0,1.0,1.0,0.4987479131886478 0.4987479131886478 0.4987479131886478 0.5 0.5025041736227045 0.5325542570951586 0.573873121869783 0.6064273789649416 0.6327212020033389 0.6602671118530884 0.7053422370617696 0.7278797996661102 0.7529215358931552 0.7792153589315526 0.8055091819699498 0.8718697829716193 0.8843906510851418 0.9019198664440734 0.9069282136894824 0.9094323873121868 0.9094323873121868 0.9106844741235391 0.9119365609348914,0.8313856427378965 0.8213689482470785 0.8063439065108514 0.7879799666110183 0.7629382303839733 0.6293823038397328 0.5492487479131887 0.4841402337228714 0.4323873121869784 0.39565943238731216 0.335559265442404 0.3071786310517529 0.2871452420701168 0.26544240400667785 0.2437395659432388 0.1953255425709516 0.1836393989983306 0.1636060100166945 0.1585976627712855 0.1569282136894825 0.1552587646076795 0.1552587646076795 0.1552587646076795,467.1000000000058 487.1000000000058 507.1000000000058 527.1000000000058 547.1000000000058 567.1000000000057 587.1000000000057 607.1000000000057 627.1000000000057 647.1000000000057 667.1000000000057 687.1000000000057 707.1000000000058 727.1000000000058 747.1000000000058 767.1000000000058 787.1000000000058 807.1000000000058 827.1000000000058 847.1000000000058 867.1000000000058 887.1000000000058 907.1000000000058
cb_07,21.0,enc_trial,stim,response,Miami trip,1301.3999999999942,enc_trial,1.0,21.0,t_s_12_1,travel_shared,fold-b,clear toiletry bag,7.0,competing,far,paired,t_s_12_1.jpg,,travel-b1,Iceland trip,Miami trip,sub-41,1.0,1.0,1.0,0.0,0.4962437395659433 0.4974958263772955 0.4987479131886478 0.4987479131886478 0.4987479131886478 0.4987479131886478 0.5 0.5 0.5 0.5 0.5 0.5025041736227045 0.505008347245409 0.5137729549248748 0.5225375626043406 0.5287979966611018 0.5425709515859767 0.5513355592654424 0.5651085141903172 0.5776293823038398 0.5951585976627712 0.5964106844741236 0.5964106844741236 0.6001669449081803 0.6076794657762938 0.6202003338898163 0.6565108514190316 0.6752921535893155 0.6953255425709515 0.7166110183639398 0.7541736227045075 0.7742070116861435 0.7954924874791318 0.8105175292153589 0.8155258764607679 0.8242904841402336 0.8318030050083471 0.8343071786310517 0.8380634390651085 0.840567612687813 0.8455759599332221 0.8468280467445742 0.850584307178631 0.8543405676126877 0.8543405676126877 0.8568447412353922,0.8313856427378965 0.8297161936560935 0.8297161936560935 0.8297161936560935 0.8297161936560935 0.8280467445742905 0.8247078464106845 0.8247078464106845 0.8247078464106845 0.8247078464106845 0.8213689482470785 0.8146911519198664 0.7996661101836394 0.7779632721202003 0.7495826377295493 0.7178631051752922 0.6160267111853088 0.5809682804674458 0.5375626043405677 0.4958263772954925 0.4490818030050083 0.4424040066777963 0.43739565943238734 0.4240400667779632 0.39565943238731216 0.3606010016694491 0.3055091819699499 0.28046744574290483 0.2587646076794657 0.2320534223706177 0.20367278797996646 0.19365609348914856 0.1803005008347245 0.1719532554257095 0.1686143572621035 0.1636060100166945 0.1602671118530885 0.1585976627712855 0.1552587646076795 0.1552587646076795 0.1535893155258765 0.1519198664440734 0.1485809682804674 0.1469115191986644 0.1452420701168614 0.1452420701168614,383.3999999999942 403.3999999999942 423.3999999999942 443.3999999999942 463.3999999999942 483.3999999999942 503.3999999999942 523.3999999999942 543.3999999999942 563.3999999999943 583.3999999999943 603.3999999999943 623.3999999999943 643.3999999999943 663.3999999999943 683.3999999999943 703.3999999999942 723.3999999999942 743.3999999999942 763.3999999999942 783.3999999999942 803.3999999999942 823.3999999999942 843.3999999999942 863.3999999999942 883.3999999999942 903.3999999999942 923.3999999999942 943.3999999999942 963.3999999999942 983.3999999999942 1003.3999999999942 1023.3999999999942 1043.3999999999942 1063.3999999999942 1083.3999999999942 1103.3999999999942 1123.3999999999942 1143.3999999999942 1163.3999999999942 1183.3999999999942 1203.3999999999942 1223.3999999999942 1243.3999999999942 1263.3999999999942 1283.3999999999942
cb_07,22.0,enc_trial,stim,response,Iceland trip,1085.200000190729,enc_trial,1.0,22.0,t_i_07_1,travel_Iceland,fold-e-single,hiking backpack,7.0,unique,,single,t_i_07_1.jpg,Iceland,travel-b1,Iceland trip,Miami trip,sub-41,1.0,,1.0,,0.4987479131886478 0.4987479131886478 0.4987479131886478 0.5 0.5 0.5012520868113522 0.5075125208681135 0.5200333889816361 0.5300500834724541 0.5350584307178631 0.5400667779632721 0.5425709515859767 0.5425709515859767 0.5388146911519198 0.5313021702838063 0.4949916527545911 0.4674457429048414 0.41611018363939895 0.3710350584307179 0.3347245409015025 0.3059265442404007 0.2808848080133556 0.2758764607679466 0.2721202003338898 0.2658597662771285 0.2483305509181969 0.243322203672788 0.23831385642737896 0.2320534223706177 0.2207846410684474 0.21076794657762926 0.1919866444073456 0.18071786310517526 0.169449081803005 0.1556761268781302 0.1393989983305509 0.1343906510851419 0.13188647746243734 0.13063439065108512 0.12938230383973287,0.8347245409015025 0.8347245409015025 0.8347245409015025 0.8330550918196995 0.8330550918196995 0.8146911519198664 0.7896494156928213 0.7495826377295493 0.7111853088480802 0.676126878130217 0.6410684474123539 0.5642737896494157 0.5175292153589315 0.4808013355592654 0.4607679465776294 0.4190317195325543 0.40901502504173626 0.3906510851419032 0.3722871452420701 0.3589315525876461 0.3489148580968281 0.333889816360601 0.330550918196995 0.325542570951586 0.3188647746243739 0.2988313856427379 0.29215358931552593 0.2854757929883138 0.27378964941569284 0.25709515859766274 0.23873121869782976 0.21368948247078468 0.20033388981636047 0.1903171953255426 0.1769616026711185 0.1585976627712855 0.1535893155258765 0.1502504173622704 0.1502504173622704 0.1485809682804674,233.19999999998254 253.19999999998254 273.19999999998254 293.1999999999825 313.1999999999825 333.1999999999825 353.19999999998254 373.19999999998254 393.19999999998254 413.19999999998254 433.19999999998254 453.19999999998254 473.19999999998254 493.19999999998254 513.1999999999825 533.1999999999825 553.1999999999825 573.1999999999825 593.1999999999825 613.1999999999825 633.1999999999825 653.1999999999825 673.1999999999825 693.1999999999824 713.1999999999824 733.1999999999824 753.1999999999824 773.1999999999824 793.1999999999824 813.1999999999824 833.1999999999824 853.1999999999824 873.1999999999824 893.1999999999824 913.1999999999823 933.1999999999823 953.1999999999823 973.1999999999823 993.1999999999823 1013.1999999999823
cb_07,23.0,enc_trial,stim,response,Miami trip,734.7999999046443,enc_trial,1.0,23.0,t_s_21_2,travel_shared,fold-b,umbrella,7.0,competing,far,paired,t_s_21_2.jpg,,travel-b1,Iceland trip,Miami trip,sub-41,0.0,0.0,1.0,1.0,0.5 0.5 0.5 0.5 0.5 0.5 0.5 0.5 0.5 0.5 0.5 0.5 0.5 0.5 0.5 0.5137729549248748 0.5275459098497496 0.5488313856427379 0.5863939899833055 0.6214524207011686 0.6752921535893155 0.7967445742904841 0.8217863105175292 0.840567612687813 0.8480801335559265 0.8530884808013355 0.85559265442404 0.85559265442404 0.85559265442404 0.8568447412353922 0.8593489148580967,0.8380634390651085 0.8380634390651085 0.8380634390651085 0.8380634390651085 0.8380634390651085 0.8380634390651085 0.8380634390651085 0.8380634390651085 0.8380634390651085 0.8380634390651085 0.8380634390651085 0.8380634390651085 0.8380634390651085 0.8363939899833055 0.8330550918196995 0.7796327212020033 0.7412353923205341 0.679465776293823 0.5943238731218699 0.5075125208681135 0.4140233722871453 0.19365609348914856 0.1485809682804674 0.11853088480801333 0.10684474123539234 0.10350584307178634 0.09849749582637736 0.09682804674457424 0.09682804674457424 0.09515859766277124 0.09015025041736224,66.60000000000582 86.60000000000582 106.60000000000582 126.60000000000582 146.60000000000582 166.60000000000582 186.60000000000585 206.60000000000585 226.60000000000585 246.60000000000585 266.6000000000058 286.6000000000058 306.6000000000058 326.6000000000058 346.6000000000058 366.6000000000058 386.6000000000058 406.6000000000058 426.6000000000058 446.6000000000058 466.6000000000058 486.6000000000058 506.6000000000058 526.6000000000058 546.6000000000058 566.6000000000057 586.6000000000057 606.6000000000057 626.6000000000057 646.6000000000057 666.6000000000057
cb_07,24.0,enc_trial,stim,response,Iceland trip,886.3999999999942,enc_trial,1.0,24.0,t_i_14_2,travel_Iceland,fold-c,snow pants,7.0,unique,close,paired,t_i_14_2.jpg,Iceland,travel-b1,Iceland trip,Miami trip,sub-41,1.0,1.0,1.0,1.0,0.4987479131886478 0.4987479131886478 0.5 0.5 0.5 0.489983305509182 0.4837228714524207 0.4749582637729549 0.4649415692821369 0.4574290484140234 0.4511686143572621 0.4424040066777963 0.4311352253756261 0.4085976627712855 0.3823038397328881 0.3009181969949916 0.2721202003338898 0.24707846410684475 0.2320534223706177 0.2157762938230384 0.20325542570951585 0.1857262103505843 0.1832220367278798 0.17821368948247074 0.17696160267111852 0.17070116861435725 0.169449081803005 0.16569282136894822 0.16318864774624373 0.16068447412353926 0.15943238731218695 0.1581803005008347,0.8247078464106845 0.7979966611018364 0.7712854757929883 0.7262103505843072 0.7111853088480802 0.6327212020033389 0.5943238731218699 0.5509181969949917 0.5075125208681135 0.4724540901502504 0.4474123539232053 0.4173622704507513 0.4006677796327212 0.3823038397328882 0.3622704507512521 0.3155258764607679 0.2988313856427379 0.28213689482470783 0.27545909849749584 0.26377295492487474 0.2554257095158597 0.2404006677796328 0.23372287145242066 0.22370617696160267 0.21869782971619367 0.20033388981636047 0.19699499165275453 0.1886477462437396 0.1853088480801336 0.1803005008347245 0.1769616026711185 0.1752921535893155,249.8999999999941 269.89999999999407 289.8999999999941 309.8999999999941 329.8999999999941 349.8999999999941 369.8999999999941 389.8999999999941 409.8999999999941 429.8999999999941 449.8999999999941 469.8999999999941 489.8999999999941 509.8999999999941 529.8999999999942 549.8999999999942 569.8999999999943 589.8999999999943 609.8999999999943 629.8999999999943 649.8999999999943 669.8999999999943 689.8999999999942 709.8999999999942 729.8999999999942 749.8999999999942 769.8999999999942 789.8999999999942 809.8999999999942 829.8999999999942 849.8999999999942 869.8999999999942
cb_07,25.0,enc_trial,stim,response,Miami trip,919.5999998092592,enc_trial,1.0,25.0,t_s_04_1,travel_shared,fold-c-single,instant camera,7.0,competing,,single,t_s_04_1.jpg,,travel-b1,Iceland trip,Miami trip,sub-41,1.0,,1.0,,0.4949916527545911 0.4949916527545911 0.4949916527545911 0.4962437395659433 0.4987479131886478 0.5087646076794657 0.5275459098497496 0.5500834724540902 0.5713689482470785 0.5926544240400667 0.6101836393989983 0.6364774624373957 0.6427378964941569 0.6489983305509182 0.6602671118530884 0.6752921535893155 0.7040901502504173 0.7116026711185308 0.7141068447412353 0.7191151919866443 0.7291318864774624 0.7554257095158597 0.7729549248747912 0.7979966611018363 0.8292988313856426 0.8706176961602671 0.8756260434056761 0.8768781302170283,0.8180300500834725 0.8013355592654424 0.7863105175292153 0.7629382303839733 0.7312186978297162 0.6894824707846411 0.6010016694490818 0.5358931552587647 0.4924874791318865 0.4524207011686143 0.4207011686143573 0.3806343906510852 0.3706176961602671 0.3589315525876461 0.33889816360601 0.3138564273789649 0.27045075125208684 0.26043405676126874 0.2554257095158597 0.2454090150250417 0.23038397328881466 0.19699499165275453 0.1803005008347245 0.1602671118530885 0.1419031719532554 0.12020033388981632 0.12020033388981632 0.11686143572621033,250.19999999998254 270.19999999998254 290.1999999999825 310.1999999999825 330.1999999999825 350.19999999998254 370.19999999998254 390.19999999998254 410.19999999998254 430.19999999998254 450.19999999998254 470.19999999998254 490.19999999998254 510.19999999998254 530.1999999999825 550.1999999999825 570.1999999999825 590.1999999999825 610.1999999999825 630.1999999999825 650.1999999999825 670.1999999999825 690.1999999999824 710.1999999999824 730.1999999999824 750.1999999999824 770.1999999999824 790.1999999999824
cb_07,26.0,enc_trial,stim,response,Miami trip,1023.3000000953616,enc_trial,1.0,26.0,t_s_08_1,travel_shared,fold-a,hand lotion,7.0,competing,close,paired,t_s_08_1.jpg,,travel-b1,Iceland trip,Miami trip,sub-41,1.0,1.0,1.0,0.0,0.5062604340567612 0.5075125208681135 0.5075125208681135 0.5075125208681135 0.5075125208681135 0.5075125208681135 0.5075125208681135 0.5075125208681135 0.5075125208681135 0.5075125208681135 0.5075125208681135 0.5075125208681135 0.5075125208681135 0.5075125208681135 0.5075125208681135 0.5075125208681135 0.5075125208681135 0.5075125208681135 0.5075125208681135 0.5012520868113522 0.4912353923205342 0.4912353923205342 0.4912353923205342 0.5162771285475793 0.5463272120200334 0.5801335559265443 0.6076794657762938 0.6377295492487479 0.6677796327212019 0.6890651085141902 0.7141068447412353 0.7291318864774624 0.7378964941569282 0.7416527545909849 0.7429048414023371 0.7441569282136894 0.756677796327212 0.7754590984974957 0.7917362270450751 0.8017529215358931 0.8130217028380634 0.8167779632721202 0.8192821368948247 0.8217863105175292 0.8255425709515859 0.835559265442404 0.8368113522537562 0.8380634390651085,0.8530884808013356 0.8664440734557596 0.8681135225375626 0.8681135225375626 0.8681135225375626 0.8681135225375626 0.8681135225375626 0.8681135225375626 0.8681135225375626 0.8681135225375626 0.8681135225375626 0.8681135225375626 0.8681135225375626 0.8681135225375626 0.8681135225375626 0.8681135225375626 0.8681135225375626 0.8681135225375626 0.8614357262103506 0.8280467445742905 0.7378964941569282 0.669449081803005 0.5826377295492488 0.4724540901502504 0.3622704507512521 0.27378964941569284 0.2287145242070117 0.1903171953255426 0.1602671118530885 0.13856427378964942 0.12186978297161932 0.11018363939899832 0.10517529215358934 0.10350584307178634 0.10350584307178634 0.10350584307178634 0.10684474123539234 0.11519198664440733 0.12353923205342232 0.12520868113522546 0.12687813021702846 0.12854757929883145 0.13021702838063445 0.13021702838063445 0.13021702838063445 0.13188647746243742 0.13355592654424042 0.13355592654424042,66.79999999998836 86.79999999998836 106.79999999998836 126.79999999998836 146.7999999999884 166.7999999999884 186.79999999998842 206.79999999998842 226.79999999998842 246.79999999998842 266.7999999999884 286.79999999998836 306.79999999998836 326.79999999998836 346.7999999999884 366.7999999999884 386.7999999999884 406.7999999999884 426.7999999999884 446.7999999999884 466.7999999999884 486.7999999999884 506.7999999999884 526.7999999999884 546.7999999999884 566.7999999999884 586.7999999999884 606.7999999999884 626.7999999999884 646.7999999999884 666.7999999999884 686.7999999999884 706.7999999999884 726.7999999999884 746.7999999999884 766.7999999999884 786.7999999999884 806.7999999999884 826.7999999999884 846.7999999999884 866.7999999999884 886.7999999999884 906.7999999999884 926.7999999999884 946.7999999999884 966.7999999999884 986.7999999999884 1006.7999999999884
cb_07,27.0,enc_trial,stim,response,Iceland trip,987.3999999999942,enc_trial,1.0,27.0,t_i_02_1,travel_Iceland,fold-e-single,scarf,7.0,unique,,single,t_i_02_1.jpg,Iceland,travel-b1,Iceland trip,Miami trip,sub-41,1.0,,1.0,,0.4974958263772955 0.4974958263772955 0.4974958263772955 0.4974958263772955 0.4974958263772955 0.4974958263772955 0.4974958263772955 0.4974958263772955 0.4974958263772955 0.4974958263772955 0.4974958263772955 0.4974958263772955 0.4974958263772955 0.4974958263772955 0.4987479131886478 0.5025041736227045 0.505008347245409 0.5112687813021702 0.5162771285475793 0.5175292153589316 0.5175292153589316 0.5200333889816361 0.5212854757929883 0.5212854757929883 0.5200333889816361 0.5025041736227045 0.4974958263772955 0.4937395659432388 0.489983305509182 0.4874791318864775 0.4862270450751252 0.4787145242070117 0.4712020033388982 0.4636894824707846 0.4586811352253756 0.4298831385642738 0.39858096828046746 0.3535058430717863 0.3021702838063439 0.2520868113522537 0.19949916527545908 0.17696160267111852 0.169449081803005 0.14565943238731216 0.12687813021702835 0.1043405676126878 0.10183639398998327,0.8397328881469115 0.8397328881469115 0.8397328881469115 0.8380634390651085 0.8380634390651085 0.8380634390651085 0.8380634390651085 0.8380634390651085 0.8380634390651085 0.8380634390651085 0.8380634390651085 0.8363939899833055 0.8347245409015025 0.8297161936560935 0.8213689482470785 0.7846410684474123 0.7646076794657763 0.7412353923205341 0.7161936560934892 0.6961602671118531 0.666110183639399 0.5893155258764607 0.5308848080133556 0.4924874791318865 0.4524207011686143 0.3656093489148581 0.3372287145242069 0.3171953255425709 0.3005008347245409 0.2854757929883138 0.28046744574290483 0.27712854757929883 0.27378964941569284 0.26878130217028384 0.26377295492487474 0.24207011686143576 0.2287145242070117 0.21202003338898168 0.1953255425709516 0.1769616026711185 0.1569282136894825 0.1435726210350584 0.14023372287145242 0.13188647746243742 0.12520868113522546 0.11519198664440733 0.11352253756260433,16.699999999982538 36.69999999998254 56.69999999998254 76.69999999998255 96.69999999998255 116.69999999998255 136.69999999998254 156.69999999998254 176.69999999998254 196.69999999998254 216.69999999998254 236.69999999998254 256.69999999998254 276.69999999998254 296.6999999999825 316.6999999999825 336.6999999999825 356.69999999998254 376.69999999998254 396.69999999998254 416.69999999998254 436.69999999998254 456.69999999998254 476.69999999998254 496.69999999998254 516.6999999999825 536.6999999999825 556.6999999999825 576.6999999999825 596.6999999999825 616.6999999999825 636.6999999999825 656.6999999999825 676.6999999999825 696.6999999999824 716.6999999999824 736.6999999999824 756.6999999999824 776.6999999999824 796.6999999999824 816.6999999999824 836.6999999999824 856.6999999999824 876.6999999999824 896.6999999999824 916.6999999999823 936.6999999999823
cb_07,28.0,enc_trial,stim,response,Iceland trip,904.9000000953674,enc_trial,1.0,28.0,t_i_06_2,travel_Iceland,fold-d,knit hat,7.0,unique,far,paired,t_i_06_2.jpg,Iceland,travel-b1,Iceland trip,Miami trip,sub-41,1.0,1.0,1.0,1.0,0.6352253756260434 0.6515025041736227 0.6702838063439065 0.6890651085141902 0.7103505843071786 0.7303839732888147 0.7441569282136894 0.7441569282136894 0.7441569282136894 0.7441569282136894 0.7479131886477461 0.7504173622704506 0.7579298831385642 0.7641903171953255 0.7654424040066777 0.7717028380634391 0.7792153589315526 0.7842237061769616 0.7892320534223706 0.7917362270450751 0.8030050083472453 0.8117696160267112 0.8167779632721202 0.8205342237061769 0.8242904841402336 0.8242904841402336 0.8242904841402336 0.8205342237061769 0.7967445742904841 0.7316360601001669 0.4724540901502504 0.3735392320534224 0.2758764607679466 0.20075125208681133 0.15943238731218695 0.1393989983305509 0.12813021702838062 0.12813021702838062 0.12813021702838062 0.12813021702838062 0.1231218697829716 0.12061769616026707 0.11936560934891485,0.6260434056761268 0.6026711185308848 0.5742904841402336 0.5425709515859767 0.5141903171953255 0.4858096828046744 0.4641068447412354 0.4607679465776294 0.4607679465776294 0.4607679465776294 0.4507512520868113 0.43739565943238734 0.4240400667779632 0.4040066777963273 0.3873121869782972 0.3639398998330551 0.3171953255425709 0.2988313856427379 0.2838063439065108 0.26878130217028384 0.2287145242070117 0.1986644407345576 0.1853088480801336 0.1752921535893155 0.1669449081803005 0.1602671118530885 0.1502504173622704 0.1419031719532554 0.13021702838063445 0.11352253756260433 0.09015025041736224 0.09015025041736224 0.09015025041736224 0.09015025041736224 0.09015025041736224 0.09015025041736224 0.09015025041736224 0.09015025041736224 0.09015025041736224 0.09015025041736224 0.09015025041736224 0.09015025041736224 0.09015025041736224,0.0 20.0 40.0 60.0 80.0 100.0 120.0 140.0 160.0 180.0 200.0 220.0 240.0 260.0 280.0 300.0 320.0 340.0 360.0 380.0 400.0 420.0 440.0 460.0 480.0 500.0 520.0 540.0 560.0 580.0 600.0 620.0 640.0 660.0 680.0 700.0 720.0 740.0 760.0 780.0 800.0 820.0 840.0
cb_07,29.0,enc_trial,stim,response,Iceland trip,1345.2000000953558,enc_trial,1.0,29.0,t_s_13_1,travel_shared,fold-c-single,contact lens case,7.0,competing,,single,t_s_13_1.jpg,,travel-b1,Iceland trip,Miami trip,sub-41,1.0,,1.0,,0.5 0.5 0.5 0.5 0.5 0.5 0.5 0.5062604340567612 0.5112687813021702 0.5150250417362271 0.5187813021702838 0.5262938230383973 0.5363105175292153 0.5525876460767947 0.5676126878130217 0.5713689482470785 0.5638564273789649 0.505008347245409 0.41986644407345575 0.3159432387312187 0.22454090150250414 0.09808013355592653 0.07554257095158595 0.06677796327212017 0.06176961602671116 0.05425709515859764 0.05050083472454088 0.05050083472454088 0.05050083472454088 0.05050083472454088 0.05050083472454088 0.05050083472454088 0.05425709515859764 0.06176961602671116 0.06928213689482468 0.07303839732888145 0.08430717863105174 0.09181969949916527 0.0930717863105175 0.09432387312186977 0.09682804674457428 0.09808013355592653,0.8330550918196995 0.8330550918196995 0.8330550918196995 0.8313856427378965 0.8313856427378965 0.8297161936560935 0.8196994991652755 0.7946577629382303 0.7746243739565943 0.7479131886477463 0.7195325542570952 0.6160267111853088 0.5342237061769616 0.4323873121869784 0.3589315525876461 0.320534223706177 0.27045075125208684 0.23038397328881466 0.1986644407345576 0.1686143572621035 0.1502504173622704 0.12687813021702846 0.12020033388981632 0.11853088480801333 0.11853088480801333 0.11519198664440733 0.11519198664440733 0.11519198664440733 0.11519198664440733 0.11519198664440733 0.11519198664440733 0.11519198664440733 0.11519198664440733 0.11686143572621033 0.12186978297161932 0.12520868113522546 0.13355592654424042 0.13689482470784642 0.13856427378964942 0.13856427378964942 0.14023372287145242 0.14023372287145242,466.59999999997666 486.59999999997666 506.59999999997666 526.5999999999766 546.5999999999766 566.5999999999767 586.5999999999767 606.5999999999767 626.5999999999767 646.5999999999767 666.5999999999767 686.5999999999767 706.5999999999768 726.5999999999768 746.5999999999768 766.5999999999768 786.5999999999768 806.5999999999768 826.5999999999768 846.5999999999768 866.5999999999768 886.5999999999768 906.5999999999768 926.5999999999768 946.5999999999768 966.5999999999768 986.5999999999768 1006.5999999999768 1026.5999999999767 1046.5999999999767 1066.5999999999767 1086.5999999999767 1106.5999999999767 1126.5999999999767 1146.5999999999767 1166.5999999999767 1186.5999999999767 1206.5999999999767 1226.5999999999767 1246.5999999999767 1266.5999999999767 1286.5999999999767
cb_07,30.0,enc_trial,stim,response,Miami trip,936.2999999999884,enc_trial,1.0,30.0,t_m_20_1,travel_Miami,fold-e-single,inflatable beachball,7.0,unique,,single,t_m_20_1.jpg,Miami,travel-b1,Iceland trip,Miami trip,sub-41,1.0,,1.0,,0.5 0.5 0.5037562604340567 0.5150250417362271 0.5275459098497496 0.5513355592654424 0.5638564273789649 0.578881469115192 0.593906510851419 0.6139398998330551 0.6427378964941569 0.7153589315525876 0.751669449081803 0.7666944908180301 0.7779632721202002 0.7829716193656093 0.7829716193656093 0.7829716193656093 0.7829716193656093 0.7829716193656093 0.7842237061769616 0.8005008347245408 0.8180300500834724 0.8292988313856426 0.8368113522537562 0.8443238731218697 0.8468280467445742 0.8493322203672787 0.8518363939899832 0.8530884808013355,0.8363939899833055 0.8297161936560935 0.7946577629382303 0.7595993322203672 0.7212020033388982 0.6377295492487479 0.5926544240400669 0.5525876460767947 0.5141903171953255 0.4774624373956594 0.42570951585976624 0.32220367278798 0.26878130217028384 0.2437395659432388 0.22370617696160267 0.21535893155258767 0.21535893155258767 0.21535893155258767 0.21535893155258767 0.21535893155258767 0.21368948247078468 0.1869782971619366 0.1602671118530885 0.1469115191986644 0.13689482470784642 0.12687813021702846 0.12520868113522546 0.12353923205342232 0.12353923205342232 0.12186978297161932,350.3999999999942 370.3999999999942 390.3999999999942 410.3999999999942 430.3999999999942 450.3999999999942 470.3999999999942 490.3999999999942 510.3999999999942 530.3999999999942 550.3999999999942 570.3999999999943 590.3999999999943 610.3999999999943 630.3999999999943 650.3999999999943 670.3999999999943 690.3999999999942 710.3999999999942 730.3999999999942 750.3999999999942 770.3999999999942 790.3999999999942 810.3999999999942 830.3999999999942 850.3999999999942 870.3999999999942 890.3999999999942 910.3999999999942 930.3999999999942
cb_07,31.0,enc_trial,stim,response,Miami trip,903.6999998092653,enc_trial,1.0,31.0,t_m_05_2,travel_Miami,fold-d,sunscreen,7.0,unique,far,paired,t_m_05_2.jpg,Miami,travel-b1,Iceland trip,Miami trip,sub-41,1.0,1.0,1.0,1.0,0.4974958263772955 0.4974958263772955 0.489983305509182 0.4812186978297162 0.4712020033388982 0.4461602671118531 0.4311352253756261 0.4123539232053423 0.3935726210350584 0.3747913188647746 0.3547579298831385 0.3585141903171953 0.3772954924874791 0.4148580968280468 0.4461602671118531 0.593906510851419 0.6990818030050083 0.7829716193656093 0.8167779632721202 0.8267946577629381 0.8267946577629381 0.8267946577629381 0.8280467445742904 0.8305509181969949 0.8393155258764607 0.840567612687813 0.8443238731218697 0.8480801335559265 0.8480801335559265 0.8493322203672787,0.8297161936560935 0.8146911519198664 0.7863105175292153 0.7328881469115192 0.6928213689482471 0.5792988313856428 0.5242070116861436 0.4691151919866444 0.4290484140233721 0.3906510851419032 0.3489148580968281 0.27045075125208684 0.23873121869782976 0.21535893155258767 0.20868113522537568 0.1986644407345576 0.1986644407345576 0.1903171953255426 0.1819699499165276 0.1803005008347245 0.1803005008347245 0.1803005008347245 0.1803005008347245 0.1803005008347245 0.1803005008347245 0.1803005008347245 0.1803005008347245 0.1803005008347245 0.1786310517529215 0.1786310517529215,300.29999999998836 320.29999999998836 340.29999999998836 360.2999999999884 380.2999999999884 400.2999999999884 420.2999999999884 440.2999999999884 460.2999999999884 480.2999999999884 500.2999999999884 520.2999999999884 540.2999999999884 560.2999999999884 580.2999999999884 600.2999999999884 620.2999999999884 640.2999999999884 660.2999999999884 680.2999999999884 700.2999999999884 720.2999999999884 740.2999999999884 760.2999999999884 780.2999999999884 800.2999999999884 820.2999999999884 840.2999999999884 860.2999999999884 880.2999999999884
cb_07,32.0,enc_trial,stim,response,Iceland trip,1424.6999998092651,enc_trial,1.0,32.0,t_s_08_2,travel_shared,fold-a,hand lotion,7.0,competing,close,paired,t_s_08_2.jpg,,travel-b1,Iceland trip,Miami trip,sub-41,1.0,1.0,1.0,0.0,0.5012520868113522 0.4987479131886478 0.4924874791318865 0.484974958263773 0.4724540901502504 0.4686978297161937 0.4686978297161937 0.4686978297161937 0.4686978297161937 0.4686978297161937 0.4686978297161937 0.4686978297161937 0.4686978297161937 0.4686978297161937 0.4686978297161937 0.4686978297161937 0.4686978297161937 0.4686978297161937 0.4686978297161937 0.4686978297161937 0.4686978297161937 0.4611853088480801 0.4411519198664441 0.4273789649415693 0.41986644407345575 0.41986644407345575 0.41986644407345575 0.4173622704507513 0.41611018363939895 0.4186143572621035 0.479966611018364 0.5225375626043406 0.583889816360601 0.672787979966611 0.7792153589315526 0.8906510851419032 1.0221202003338898 1.0308848080133557 1.0308848080133557 1.0308848080133557 1.0271285475792988 1.0196160267111851 1.0058430717863105 0.9870617696160268 0.9695325542570952 0.9482470784641068 0.9106844741235391 0.8956594323873122 0.8856427378964941 0.8818864774624373 0.850584307178631 0.8067612687813022 0.7291318864774624 0.6377295492487479 0.5438230383973289 0.4661936560934892 0.3685308848080133 0.3459933222036728 0.3234557595993322 0.3046744574290484 0.243322203672788 0.2182804674457429 0.2070116861435726 0.1907345575959933 0.17821368948247074 0.17070116861435725 0.17070116861435725 0.17070116861435725 0.169449081803005 0.16444073455759595 0.16193656093489148,0.8380634390651085 0.8213689482470785 0.7896494156928213 0.7378964941569282 0.6828046744574289 0.6744574290484139 0.676126878130217 0.676126878130217 0.676126878130217 0.676126878130217 0.676126878130217 0.676126878130217 0.676126878130217 0.676126878130217 0.676126878130217 0.676126878130217 0.676126878130217 0.676126878130217 0.676126878130217 0.676126878130217 0.676126878130217 0.671118530884808 0.6360601001669449 0.5976627712854758 0.5509181969949917 0.5058430717863105 0.4574290484140233 0.4323873121869784 0.38898163606010017 0.37395659432387307 0.3121869782971619 0.3021702838063439 0.2888146911519198 0.27545909849749584 0.24707846410684475 0.2287145242070117 0.2020033388981636 0.19699499165275453 0.19699499165275453 0.19699499165275453 0.1919866444073456 0.1869782971619366 0.1786310517529215 0.1652754590984975 0.1569282136894825 0.1469115191986644 0.13856427378964942 0.13856427378964942 0.13856427378964942 0.13856427378964942 0.13856427378964942 0.1435726210350584 0.1569282136894825 0.1719532554257095 0.1803005008347245 0.1803005008347245 0.1803005008347245 0.1819699499165276 0.1819699499165276 0.1786310517529215 0.1786310517529215 0.1786310517529215 0.1786310517529215 0.1803005008347245 0.1803005008347245 0.1803005008347245 0.1803005008347245 0.1803005008347245 0.1803005008347245 0.1803005008347245 0.1769616026711185,16.89999999999418 36.89999999999418 56.89999999999418 76.8999999999942 96.89999999999418 116.89999999999418 136.89999999999418 156.89999999999418 176.8999999999942 196.89999999999415 216.89999999999415 236.89999999999415 256.8999999999942 276.8999999999942 296.8999999999942 316.8999999999942 336.8999999999942 356.8999999999942 376.8999999999942 396.8999999999942 416.8999999999942 436.8999999999942 456.8999999999942 476.8999999999942 496.8999999999942 516.8999999999942 536.8999999999942 556.8999999999942 576.8999999999943 596.8999999999943 616.8999999999943 636.8999999999943 656.8999999999943 676.8999999999943 696.8999999999942 716.8999999999942 736.8999999999942 756.8999999999942 776.8999999999942 796.8999999999942 816.8999999999942 836.8999999999942 856.8999999999942 876.8999999999942 896.8999999999942 916.8999999999942 936.8999999999942 956.8999999999942 976.8999999999942 996.8999999999942 1016.8999999999942 1036.8999999999942 1056.8999999999942 1076.8999999999942 1096.8999999999942 1116.8999999999942 1136.8999999999942 1156.8999999999942 1176.8999999999942 1196.8999999999942 1216.8999999999942 1236.8999999999942 1256.8999999999942 1276.8999999999942 1296.8999999999942 1316.8999999999942 1336.8999999999942 1356.8999999999942 1376.8999999999942 1396.8999999999942 1416.8999999999942
cb_07,33.0,enc_trial,stim,response,Miami trip,1244.2999999046442,enc_trial,1.0,33.0,t_m_11_2,travel_Miami,fold-d,collapsible beach chair,7.0,unique,far,paired,t_m_11_2.jpg,Miami,travel-b1,Iceland trip,Miami trip,sub-41,1.0,1.0,1.0,1.0,0.5 0.5 0.5062604340567612 0.5200333889816361 0.5350584307178631 0.5626043405676127 0.6227045075125208 0.6502504173622704 0.6552587646076794 0.6690317195325542 0.6752921535893155 0.6915692821368947 0.7128547579298831 0.7441569282136894 0.7717028380634391 0.7892320534223706 0.8117696160267112 0.8205342237061769 0.8255425709515859 0.8368113522537562 0.8468280467445742 0.8543405676126877 0.85559265442404 0.8568447412353922,0.7762938230383973 0.686143572621035 0.6210350584307178 0.5759599332220366 0.5358931552587647 0.4891485809682805 0.4207011686143573 0.3939899833055092 0.3873121869782972 0.37395659432387307 0.3706176961602671 0.3505843071786311 0.3105175292153589 0.2587646076794657 0.21368948247078468 0.1919866444073456 0.1752921535893155 0.1719532554257095 0.1719532554257095 0.1686143572621035 0.1636060100166945 0.1619365609348915 0.1619365609348915 0.1619365609348915,732.8000000000177 752.8000000000177 772.8000000000177 792.8000000000177 812.8000000000177 832.8000000000177 852.8000000000177 872.8000000000177 892.8000000000177 912.8000000000177 932.8000000000177 952.8000000000177 972.8000000000177 992.8000000000177 1012.8000000000177 1032.8000000000177 1052.8000000000177 1072.8000000000177 1092.8000000000177 1112.8000000000177 1132.8000000000175 1152.8000000000175 1172.8000000000175 1192.8000000000175
cb_07,34.0,enc_trial,stim,response,Iceland trip,1423.4000000953674,enc_trial,1.0,34.0,t_s_12_2,travel_shared,fold-b,clear toiletry bag,7.0,competing,far,paired,t_s_12_2.jpg,,travel-b1,Iceland trip,Miami trip,sub-41,1.0,1.0,1.0,0.0,0.4912353923205342 0.4812186978297162 0.4624373956594324 0.4298831385642738 0.3848080133555927 0.3297161936560935 0.24457429048414026 0.2295492487479132 0.2207846410684474 0.20826377295492485 0.1907345575959933 0.1832220367278798 0.17320534223706174 0.1719532554257095 0.169449081803005 0.16193656093489148 0.15066777963272118 0.14941569282136893 0.14941569282136893 0.14816360601001669 0.14691151919866444,0.8280467445742905 0.8213689482470785 0.8046744574290484 0.7646076794657763 0.6928213689482471 0.5642737896494157 0.3722871452420701 0.345575959933222 0.335559265442404 0.3088480801335559 0.26711185308848084 0.25041736227045075 0.2370617696160268 0.2320534223706177 0.22704507512520866 0.21535893155258767 0.1819699499165276 0.1786310517529215 0.1769616026711185 0.1719532554257095 0.1652754590984975,982.7999999999884 1002.7999999999884 1022.7999999999884 1042.7999999999884 1062.7999999999884 1082.7999999999884 1102.7999999999884 1122.7999999999884 1142.7999999999886 1162.7999999999886 1182.7999999999886 1202.7999999999886 1222.7999999999886 1242.7999999999886 1262.7999999999886 1282.7999999999886 1302.7999999999886 1322.7999999999886 1342.7999999999886 1362.7999999999886 1382.7999999999884
cb_07,35.0,enc_trial,stim,response,Iceland trip,2067.2000000953562,enc_trial,1.0,35.0,t_i_04_1,travel_Iceland,fold-c,portable camping stove,7.0,unique,close,paired,t_i_04_1.jpg,Iceland,travel-b1,Iceland trip,Miami trip,sub-41,1.0,1.0,1.0,1.0,0.4987479131886478 0.4987479131886478 0.5025041736227045 0.5062604340567612 0.5162771285475793 0.5488313856427379 0.5663606010016694 0.583889816360601 0.6189482470784641 0.6652754590984974 0.6940734557595992 0.7266277128547579 0.7404006677796326 0.7441569282136894 0.7441569282136894 0.7441569282136894 0.7441569282136894 0.7441569282136894 0.7441569282136894 0.7429048414023371 0.7291318864774624 0.7253756260434057 0.7103505843071786 0.6940734557595992 0.6702838063439065 0.5676126878130217 0.4949916527545911 0.4298831385642738 0.3885642737896494 0.3535058430717863 0.3046744574290484 0.30342237061769617 0.3021702838063439 0.3021702838063439 0.3021702838063439 0.3021702838063439 0.3021702838063439 0.3009181969949916 0.29966611018363937 0.2971619365609349 0.2971619365609349 0.2909015025041736 0.2796327212020033 0.2621035058430718 0.243322203672788 0.21452420701168606 0.2045075125208681 0.19449081803005008 0.1882303839732888 0.18447412353923204 0.16569282136894822 0.16068447412353926 0.1581803005008347 0.15066777963272118 0.14565943238731216 0.1419031719532554,0.8280467445742905 0.8247078464106845 0.8130217028380634 0.8013355592654424 0.7779632721202003 0.7195325542570952 0.6911519198664441 0.6577629382303841 0.5993322203672788 0.5175292153589315 0.4607679465776294 0.4006677796327212 0.3772954924874792 0.3706176961602671 0.3689482470784641 0.3656093489148581 0.3656093489148581 0.3639398998330551 0.3589315525876461 0.3539232053422371 0.335559265442404 0.330550918196995 0.3138564273789649 0.3021702838063439 0.2904841402337228 0.25709515859766274 0.2437395659432388 0.2320534223706177 0.22370617696160267 0.21535893155258767 0.2053422370617696 0.2053422370617696 0.2053422370617696 0.2053422370617696 0.2053422370617696 0.20367278797996646 0.2020033388981636 0.20033388981636047 0.1986644407345576 0.1986644407345576 0.19699499165275453 0.19365609348914856 0.1903171953255426 0.1869782971619366 0.1869782971619366 0.1869782971619366 0.1869782971619366 0.1869782971619366 0.1869782971619366 0.1836393989983306 0.1769616026711185 0.1752921535893155 0.1736227045075125 0.1702838063439065 0.1686143572621035 0.1652754590984975,650.2999999999884 670.2999999999884 690.2999999999884 710.2999999999884 730.2999999999884 750.2999999999884 770.2999999999884 790.2999999999884 810.2999999999884 830.2999999999884 850.2999999999884 870.2999999999884 890.2999999999884 910.2999999999884 930.2999999999884 950.2999999999884 970.2999999999884 990.2999999999884 1010.2999999999884 1030.2999999999884 1050.2999999999884 1070.2999999999884 1090.2999999999884 1110.2999999999884 1130.2999999999886 1150.2999999999886 1170.2999999999886 1190.2999999999886 1210.2999999999886 1230.2999999999886 1250.2999999999886 1270.2999999999886 1290.2999999999886 1310.2999999999886 1330.2999999999886 1350.2999999999886 1370.2999999999886 1390.2999999999884 1410.2999999999884 1430.2999999999884 1450.2999999999884 1470.2999999999884 1490.2999999999884 1510.2999999999884 1530.2999999999884 1550.2999999999884 1570.2999999999884 1590.2999999999884 1610.2999999999884 1630.2999999999884 1650.2999999999884 1670.2999999999884 1690.2999999999884 1710.2999999999884 1730.2999999999884 1750.2999999999884
cb_07,36.0,enc_trial,stim,response,Miami trip,2005.4000000953674,enc_trial,1.0,36.0,t_s_20_2,travel_shared,fold-a,travel pill case,7.0,competing,close,paired,t_s_20_2.jpg,,travel-b1,Iceland trip,Miami trip,sub-41,0.0,0.0,0.0,0.0,0.5037562604340567 0.5037562604340567 0.5037562604340567 0.5037562604340567 0.5037562604340567 0.5037562604340567 0.5037562604340567 0.5037562604340567 0.5037562604340567 0.5037562604340567 0.5037562604340567 0.5037562604340567 0.5037562604340567 0.5037562604340567 0.5037562604340567 0.5037562604340567 0.5037562604340567 0.5037562604340567 0.5037562604340567 0.5062604340567612 0.5488313856427379 0.5813856427378965 0.6064273789649416 0.6364774624373957 0.6828046744574289 0.7116026711185308 0.7303839732888147 0.7391485809682804 0.7454090150250416 0.7479131886477461 0.7479131886477461 0.7491652754590984 0.7504173622704506 0.7529215358931552 0.7541736227045075 0.7541736227045075 0.7541736227045075 0.7541736227045075 0.7541736227045075 0.7541736227045075 0.7328881469115192 0.6990818030050083 0.6377295492487479 0.5450751252086812 0.43989983305509184 0.3272120200333889 0.21076794657762926 0.18948247078464106 0.18071786310517526 0.17821368948247074 0.17821368948247074 0.17821368948247074 0.17821368948247074 0.17821368948247074 0.17821368948247074 0.17821368948247074 0.17821368948247074 0.17821368948247074 0.179465776293823 0.1882303839732888 0.33848080133555924 0.4436560934891486 0.5450751252086812 0.5951585976627712 0.6202003338898163 0.6389816360601002 0.6402337228714524 0.6427378964941569 0.6489983305509182 0.6527545909849749 0.6840567612687812 0.6953255425709515 0.7040901502504173 0.7078464106844741 0.7116026711185308 0.7228714524207009 0.7353923205342237 0.7529215358931552 0.7717028380634391 0.7992487479131886 0.8167779632721202 0.8167779632721202 0.8167779632721202 0.8167779632721202 0.8167779632721202 0.8180300500834724 0.8180300500834724 0.8180300500834724 0.8205342237061769 0.8205342237061769 0.8242904841402336 0.8267946577629381 0.8280467445742904 0.8292988313856426,0.8330550918196995 0.8330550918196995 0.8330550918196995 0.8347245409015025 0.8347245409015025 0.8347245409015025 0.8347245409015025 0.8347245409015025 0.8347245409015025 0.8347245409015025 0.8347245409015025 0.8347245409015025 0.8347245409015025 0.8347245409015025 0.8347245409015025 0.8347245409015025 0.8347245409015025 0.8347245409015025 0.8313856427378965 0.8180300500834725 0.7178631051752922 0.6393989983305509 0.5809682804674458 0.4874791318864775 0.39565943238731216 0.343906510851419 0.2938230383973289 0.27045075125208684 0.25709515859766274 0.25375626043405675 0.25375626043405675 0.2520868113522537 0.2454090150250417 0.23873121869782976 0.2370617696160268 0.2370617696160268 0.2370617696160268 0.2370617696160268 0.2370617696160268 0.2320534223706177 0.20033388981636047 0.1819699499165276 0.1569282136894825 0.13856427378964942 0.13522537562604342 0.13522537562604342 0.12520868113522546 0.11853088480801333 0.11519198664440733 0.11185308848080132 0.11185308848080132 0.11185308848080132 0.11185308848080132 0.11185308848080132 0.11185308848080132 0.11185308848080132 0.11185308848080132 0.11185308848080132 0.11185308848080132 0.11185308848080132 0.11185308848080132 0.11185308848080132 0.12854757929883145 0.13856427378964942 0.1419031719532554 0.1485809682804674 0.1485809682804674 0.1485809682804674 0.1485809682804674 0.1485809682804674 0.1469115191986644 0.1452420701168614 0.1452420701168614 0.1452420701168614 0.1452420701168614 0.1452420701168614 0.1452420701168614 0.1452420701168614 0.1452420701168614 0.1452420701168614 0.1452420701168614 0.1452420701168614 0.1452420701168614 0.1452420701168614 0.1452420701168614 0.1452420701168614 0.1452420701168614 0.1452420701168614 0.1452420701168614 0.1452420701168614 0.1452420701168614 0.1435726210350584 0.1435726210350584 0.1435726210350584,133.29999999998836 153.2999999999884 173.29999999998836 193.29999999998842 213.29999999998842 233.29999999998842 253.29999999998842 273.2999999999884 293.29999999998836 313.29999999998836 333.29999999998836 353.2999999999884 373.2999999999884 393.2999999999884 413.2999999999884 433.2999999999884 453.2999999999884 473.2999999999884 493.2999999999884 513.2999999999884 533.2999999999884 553.2999999999884 573.2999999999884 593.2999999999884 613.2999999999884 633.2999999999884 653.2999999999884 673.2999999999884 693.2999999999884 713.2999999999884 733.2999999999884 753.2999999999884 773.2999999999884 793.2999999999884 813.2999999999884 833.2999999999884 853.2999999999884 873.2999999999884 893.2999999999884 913.2999999999884 933.2999999999884 953.2999999999884 973.2999999999884 993.2999999999884 1013.2999999999884 1033.2999999999884 1053.2999999999884 1073.2999999999884 1093.2999999999884 1113.2999999999884 1133.2999999999886 1153.2999999999886 1173.2999999999886 1193.2999999999886 1213.2999999999886 1233.2999999999886 1253.2999999999886 1273.2999999999886 1293.2999999999886 1313.2999999999886 1333.2999999999886 1353.2999999999886 1373.2999999999886 1393.2999999999884 1413.2999999999884 1433.2999999999884 1453.2999999999884 1473.2999999999884 1493.2999999999884 1513.2999999999884 1533.2999999999884 1553.2999999999884 1573.2999999999884 1593.2999999999884 1613.2999999999884 1633.2999999999884 1653.2999999999884 1673.2999999999884 1693.2999999999884 1713.2999999999884 1733.2999999999884 1753.2999999999884 1773.2999999999884 1793.2999999999884 1813.2999999999884 1833.2999999999884 1853.2999999999884 1873.2999999999884 1893.2999999999884 1913.2999999999884 1933.2999999999884 1953.2999999999884 1973.2999999999884 1993.2999999999884
cb_07,37.0,enc_trial,stim,response,Miami trip,1643.2999999046442,enc_trial,1.0,37.0,t_s_24_1,travel_shared,fold-c-single,ear plugs,7.0,competing,,single,t_s_24_1.jpg,,travel-b1,Iceland trip,Miami trip,sub-41,1.0,,1.0,,0.4987479131886478 0.4987479131886478 0.4987479131886478 0.4912353923205342 0.484974958263773 0.484974958263773 0.484974958263773 0.484974958263773 0.5012520868113522 0.5062604340567612 0.5075125208681135 0.5062604340567612 0.4962437395659433 0.4774624373956594 0.4686978297161937 0.4674457429048414 0.4674457429048414 0.4724540901502504 0.5150250417362271 0.5450751252086812 0.7779632721202002 0.8192821368948247 0.8368113522537562 0.8418196994991652 0.8418196994991652 0.8418196994991652 0.8418196994991652 0.8430717863105175 0.8418196994991652 0.8418196994991652 0.8418196994991652 0.8418196994991652 0.8418196994991652 0.8418196994991652 0.8418196994991652 0.8418196994991652 0.8418196994991652 0.8418196994991652 0.8418196994991652 0.8418196994991652 0.840567612687813 0.840567612687813 0.840567612687813 0.840567612687813 0.840567612687813 0.840567612687813 0.840567612687813 0.840567612687813 0.840567612687813 0.8443238731218697 0.8480801335559265 0.850584307178631 0.850584307178631 0.850584307178631 0.850584307178631 0.8518363939899832 0.8530884808013355 0.8530884808013355 0.8530884808013355 0.8530884808013355 0.8543405676126877,0.8347245409015025 0.8347245409015025 0.8313856427378965 0.8063439065108514 0.7562604340567612 0.6928213689482471 0.5759599332220366 0.4891485809682805 0.343906510851419 0.3088480801335559 0.2520868113522537 0.24707846410684475 0.24207011686143576 0.23539232053422365 0.2287145242070117 0.2287145242070117 0.2287145242070117 0.2287145242070117 0.22370617696160267 0.22370617696160267 0.21535893155258767 0.21535893155258767 0.21535893155258767 0.21535893155258767 0.21535893155258767 0.21535893155258767 0.21535893155258767 0.21368948247078468 0.20868113522537568 0.2070116861435725 0.20367278797996646 0.20367278797996646 0.20033388981636047 0.1986644407345576 0.19699499165275453 0.1919866444073456 0.1886477462437396 0.1886477462437396 0.1886477462437396 0.1869782971619366 0.1836393989983306 0.1836393989983306 0.1836393989983306 0.1836393989983306 0.1836393989983306 0.1836393989983306 0.1836393989983306 0.1819699499165276 0.1819699499165276 0.1769616026711185 0.1719532554257095 0.1719532554257095 0.1702838063439065 0.1702838063439065 0.1702838063439065 0.1702838063439065 0.1702838063439065 0.1702838063439065 0.1702838063439065 0.1702838063439065 0.1686143572621035,283.70000000001164 303.70000000001164 323.70000000001164 343.7000000000116 363.7000000000117 383.7000000000117 403.7000000000117 423.7000000000117 443.7000000000117 463.7000000000117 483.7000000000117 503.7000000000117 523.7000000000116 543.7000000000116 563.7000000000116 583.7000000000116 603.7000000000116 623.7000000000116 643.7000000000116 663.7000000000116 683.7000000000116 703.7000000000116 723.7000000000116 743.7000000000116 763.7000000000116 783.7000000000116 803.7000000000116 823.7000000000116 843.7000000000116 863.7000000000116 883.7000000000116 903.7000000000116 923.7000000000116 943.7000000000116 963.7000000000116 983.7000000000116 1003.7000000000116 1023.7000000000116 1043.7000000000116 1063.7000000000116 1083.7000000000116 1103.7000000000116 1123.7000000000116 1143.7000000000114 1163.7000000000114 1183.7000000000114 1203.7000000000114 1223.7000000000114 1243.7000000000114 1263.7000000000114 1283.7000000000114 1303.7000000000114 1323.7000000000114 1343.7000000000114 1363.7000000000114 1383.7000000000116 1403.7000000000116 1423.7000000000116 1443.7000000000116 1463.7000000000116 1483.7000000000116
