Current Spreadsheet,Trial Number,Display,Screen,Response Type,Response,Reaction Time,display,block,block_trial,stimulus_id,expected_goal,fold,stimulus_name,c_group,condition,within_block_dist,paired_status,stimulus_path,expected_location,block_split,respStim_1,respStim_2,sub_label,acc,both_enc_acc,assoc_stim1_acc,assoc_stim2_acc,x_pos,y_pos,time_trajectories
cb_09,1.0,enc_trial,stim,response,Miami trip,1898.1000000715287,enc_trial,1.0,1.0,t_s_11_1,travel_shared,fold-a-single,eye mask,9.0,competing,,single,t_s_11_1.jpg,,travel-b1,Iceland trip,Miami trip,sub-36,1.0,,1.0,,0.5090329436769394 0.5111583421891605 0.5154091392136025 0.5196599362380446 0.5249734325185972 0.5313496280552603 0.5419766206163655 0.5547290116896918 0.565356004250797 0.5759829968119022 0.589798087141339 0.6057385759829969 0.6259298618490967 0.6546227417640808 0.6950053134962806 0.7321997874601488 0.7619553666312433 0.7747077577045696 0.7842720510095643 0.7895855472901169 0.7917109458023379 0.7927736450584485 0.7927736450584485 0.7927736450584485 0.7895855472901169 0.7693942614240171 0.740701381509033 0.6631243358129649 0.565356004250797 0.4643995749202976 0.38575982996811903 0.3390010626992561 0.31562167906482463 0.2954303931987248 0.2773645058448459 0.2454835281615303 0.2263549415515409 0.21785334750265675 0.2157279489904357 0.20935175345377247 0.19128586609989373 0.1636556854410202 0.14984059511158346 0.1392136025504782 0.1392136025504782 0.1392136025504782 0.1381509032943677 0.13708820403825714 0.13708820403825714 0.13708820403825714 0.13708820403825714 0.13708820403825714 0.14240170031880978 0.16790648246546228 0.22848034006376194 0.3475026567481403 0.5132837407013815 0.6556854410201913 0.7375132837407014 0.7619553666312433 0.7725823591923485 0.7747077577045696 0.7810839532412327 0.7885228480340064 0.7917109458023379 0.7927736450584485 0.7959617428267801 0.8023379383634431 0.8289054197662061 0.8629117959617428 0.8841657810839533 0.8894792773645058,0.8329791002479632 0.8202267091746369 0.7947219270279844 0.7649663478568898 0.7337938363443146 0.6927027984413745 0.6360255047821466 0.569429684732554 0.5042507970244421 0.4589089620970599 0.4050655331207935 0.35547290116896924 0.3002125398512221 0.23786751682607155 0.1840240878498052 0.15143464399574924 0.1344314558979809 0.12876372653205814 0.12734679419057734 0.12734679419057734 0.12734679419057734 0.12734679419057734 0.12734679419057734 0.12734679419057734 0.12876372653205814 0.12876372653205814 0.1301806588735388 0.13159759121501946 0.13584838823946155 0.13868225292242298 0.14434998228834572 0.15001771165426847 0.15426850867871056 0.15993623804463342 0.16277010272759473 0.1641870350690755 0.16560396741055616 0.16560396741055616 0.16560396741055616 0.16277010272759473 0.157102373361672 0.1486007793127878 0.14434998228834572 0.1415161176053843 0.1415161176053843 0.14009918526390364 0.14009918526390364 0.13868225292242298 0.13868225292242298 0.13868225292242298 0.13868225292242298 0.13868225292242298 0.13868225292242298 0.13868225292242298 0.13868225292242298 0.13868225292242298 0.13584838823946155 0.1344314558979809 0.1301806588735388 0.12734679419057734 0.1259298618490967 0.1259298618490967 0.1259298618490967 0.1259298618490967 0.1259298618490967 0.1259298618490967 0.1259298618490967 0.12451292950761605 0.11742826780021255 0.10892667375132836 0.10184201204392496 0.10184201204392496,430.5 450.5 470.5 490.5 510.5 530.5 550.5 570.5 590.5 610.5 630.5 650.5 670.5 690.5 710.5 730.5 750.5 770.5 790.5 810.5 830.5 850.5 870.5 890.5 910.5 930.5 950.5 970.5 990.5 1010.5 1030.5 1050.5 1070.5 1090.5 1110.5 1130.5 1150.5 1170.5 1190.5 1210.5 1230.5 1250.5 1270.5 1290.5 1310.5 1330.5 1350.5 1370.5 1390.5 1410.5 1430.5 1450.5 1470.5 1490.5 1510.5 1530.5 1550.5 1570.5 1590.5 1610.5 1630.5 1650.5 1670.5 1690.5 1710.5 1730.5 1750.5 1770.5 1790.5 1810.5 1830.5 1850.5
cb_09,2.0,enc_trial,stim,response,Miami trip,1681.5,enc_trial,1.0,2.0,t_s_12_2,travel_shared,fold-b,clear toiletry bag,9.0,competing,close,paired,t_s_12_2.jpg,,travel-b1,Iceland trip,Miami trip,sub-36,0.0,0.0,0.0,0.0,0.4973432518597237 0.4994686503719448 0.5037194473963869 0.5090329436769394 0.5164718384697131 0.5260361317747078 0.536663124335813 0.5472901168969182 0.5611052072263549 0.5727948990435706 0.5919234856535601 0.6068012752391073 0.6206163655685439 0.6312433581296493 0.6376195536663124 0.640807651434644 0.6418703506907545 0.638682252922423 0.6291179596174282 0.6142401700318809 0.5961742826780021 0.5770456960680127 0.5611052072263549 0.5536663124335813 0.5526036131774708 0.5526036131774708 0.5526036131774708 0.5526036131774708 0.5547290116896918 0.5568544102019128 0.5781083953241233 0.6036131774707758 0.6376195536663124 0.6801275239107333 0.7247608926673751 0.8012752391073327 0.8660998937300743 0.9064824654622742 0.9224229543039321 0.9234856535600424 0.9234856535600424 0.9234856535600424 0.9234856535600424 0.9234856535600424 0.9234856535600424 0.9234856535600424 0.9234856535600424 0.9234856535600424 0.9224229543039321 0.9149840595111584 0.9032943676939428 0.8937300743889479 0.8884165781083954 0.8831030818278427 0.8831030818278427 0.8820403825717322,0.8386468296138859 0.8343960325894438 0.8202267091746369 0.7975557917109458 0.7706340772228126 0.7422954303931988 0.7153737159050655 0.6884520014169324 0.6586964222458378 0.6317747077577045 0.5864328728303223 0.5453418349273822 0.5056677293659229 0.4688274884874247 0.4362380446333688 0.4036486007793128 0.3668083599008147 0.3413035777541622 0.3044633368756642 0.26762309599716616 0.2392844491675522 0.21944739638682254 0.20386114063053484 0.19394261424017 0.18827488487424726 0.18827488487424726 0.18827488487424726 0.18827488487424726 0.18827488487424726 0.1868579525327666 0.17977329082536309 0.16702089975203682 0.1528515763372299 0.1415161176053843 0.1344314558979809 0.12734679419057734 0.12309599716613527 0.12026213248317395 0.12026213248317395 0.12026213248317395 0.12026213248317395 0.12026213248317395 0.12026213248317395 0.12026213248317395 0.12026213248317395 0.12026213248317395 0.12026213248317395 0.12167906482465465 0.12167906482465465 0.1259298618490967 0.1344314558979809 0.14293304994686507 0.14718384697130715 0.15001771165426847 0.15143464399574924 0.15143464399574924,500.0 520.0 540.0 560.0 580.0 600.0 620.0 640.0 660.0 680.0 700.0 720.0 740.0 760.0 780.0 800.0 820.0 840.0 860.0 880.0 900.0 920.0 940.0 960.0 980.0 1000.0 1020.0 1040.0 1060.0 1080.0 1100.0 1120.0 1140.0 1160.0 1180.0 1200.0 1220.0 1240.0 1260.0 1280.0 1300.0 1320.0 1340.0 1360.0 1380.0 1400.0 1420.0 1440.0 1460.0 1480.0 1500.0 1520.0 1540.0 1560.0 1580.0 1600.0
cb_09,3.0,enc_trial,stim,response,Iceland trip,1006.1999999999972,enc_trial,1.0,3.0,t_i_01_1,travel_Iceland,fold-d-single,gloves,9.0,unique,,single,t_i_01_1.jpg,Iceland,travel-b1,Iceland trip,Miami trip,sub-36,1.0,,1.0,,0.4952178533475027 0.4941551540913922 0.4941551540913922 0.4920297555791711 0.4845908607863975 0.4697130712008502 0.4473963868225293 0.41020191285866103 0.3560042507970245 0.3241232731137088 0.2858660998937301 0.25717321997874604 0.2359192348565356 0.2125398512221041 0.19234856535600425 0.1785334750265675 0.17003188097768332 0.16578108395324126 0.1594048884165781 0.15409139213602552 0.14452709883103082 0.1339001062699256 0.1232731137088204 0.12221041445270987,0.8457314913212894 0.8414806942968474 0.8315621679064824 0.8088912504427914 0.7507970244420828 0.6459440311725115 0.4829968119022317 0.3157987956075098 0.17835635848388245 0.12026213248317395 0.06216790648246553 0.03524619199433232 0.022493800921006057 0.01540913921360254 0.011158342189160451 0.011158342189160451 0.01824300389656397 0.028161530286928808 0.04658165072617782 0.06783563584838825 0.09475735033652144 0.12734679419057734 0.1528515763372299 0.15851930570315265,521.1999999999971 541.1999999999971 561.1999999999971 581.1999999999971 601.1999999999971 621.1999999999971 641.1999999999971 661.1999999999971 681.1999999999971 701.1999999999971 721.1999999999971 741.1999999999971 761.1999999999971 781.1999999999971 801.1999999999971 821.1999999999971 841.1999999999971 861.1999999999971 881.1999999999971 901.1999999999972 921.1999999999972 941.1999999999972 961.1999999999972 981.1999999999972
cb_09,4.0,enc_trial,stim,response,Miami trip,1590.599999999991,enc_trial,1.0,4.0,t_s_08_1,travel_shared,fold-a-single,hand lotion,9.0,competing,,single,t_s_08_1.jpg,,travel-b1,Iceland trip,Miami trip,sub-36,1.0,,1.0,,0.5079702444208289 0.5090329436769394 0.5132837407013815 0.5175345377258236 0.5239107332624867 0.5398512221041445 0.5834218916046758 0.6461211477151966 0.7045696068012752 0.7364505844845909 0.7619553666312433 0.7693942614240171 0.7693942614240171 0.7693942614240171 0.7693942614240171 0.7693942614240171 0.7693942614240171 0.7693942614240171 0.7693942614240171 0.7704569606801275 0.7757704569606801 0.7853347502656748 0.7938363443145591 0.8002125398512221 0.8044633368756642 0.8097768331562167 0.8140276301806588 0.8225292242295429 0.8278427205100957 0.8289054197662061 0.8289054197662061 0.8310308182784272 0.8363443145589798 0.8405951115834219 0.842720510095643 0.8469713071200851 0.8554729011689692 0.8671625929861849 0.8767268862911796 0.8820403825717322,0.8358129649309245 0.8244775061990791 0.8032235210768686 0.7763018065887354 0.7267091746369111 0.630357775416224 0.4914984059511158 0.34697130712008506 0.2392844491675522 0.18544102019128586 0.14293304994686507 0.1301806588735388 0.1301806588735388 0.1301806588735388 0.1301806588735388 0.1301806588735388 0.1301806588735388 0.1301806588735388 0.1301806588735388 0.1301806588735388 0.1344314558979809 0.13868225292242298 0.14293304994686507 0.14434998228834572 0.14576691462982638 0.14434998228834572 0.14293304994686507 0.14009918526390364 0.1372653205809422 0.13584838823946155 0.13584838823946155 0.13301452355650026 0.12876372653205814 0.12451292950761605 0.12309599716613527 0.12026213248317395 0.11742826780021255 0.1117605384342898 0.1075097414098477 0.10609280906836692,486.3999999999942 506.3999999999942 526.3999999999942 546.3999999999942 566.3999999999943 586.3999999999943 606.3999999999943 626.3999999999943 646.3999999999943 666.3999999999943 686.3999999999943 706.3999999999942 726.3999999999942 746.3999999999942 766.3999999999942 786.3999999999942 806.3999999999942 826.3999999999942 846.3999999999942 866.3999999999942 886.3999999999942 906.3999999999942 926.3999999999942 946.3999999999942 966.3999999999942 986.3999999999942 1006.3999999999942 1026.3999999999942 1046.3999999999942 1066.3999999999942 1086.3999999999942 1106.3999999999942 1126.3999999999942 1146.3999999999942 1166.3999999999942 1186.3999999999942 1206.3999999999942 1226.3999999999942 1246.3999999999942 1266.3999999999942
cb_09,5.0,enc_trial,stim,response,Miami trip,1398.8000000476895,enc_trial,1.0,5.0,t_s_12_1,travel_shared,fold-b,clear toiletry bag,9.0,competing,close,paired,t_s_12_1.jpg,,travel-b1,Iceland trip,Miami trip,sub-36,0.0,0.0,0.0,0.0,0.5090329436769394 0.5090329436769394 0.5079702444208289 0.5079702444208289 0.5079702444208289 0.5079702444208289 0.5079702444208289 0.5079702444208289 0.5079702444208289 0.5079702444208289 0.5079702444208289 0.5058448459086079 0.5026567481402763 0.4984059511158342 0.4930924548352816 0.4941551540913922 0.5015940488841658 0.5047821466524973 0.5090329436769394 0.5175345377258236 0.5302869287991498 0.5472901168969182 0.5600425079702445 0.5706695005313497 0.5802337938363443 0.5951115834218916 0.6142401700318809 0.6620616365568545 0.7268862911795961 0.7874601487778958 0.8225292242295429 0.8374070138150903 0.8405951115834219 0.8437832093517534 0.8459086078639745 0.8501594048884166 0.8533475026567482 0.8533475026567482 0.8544102019128587,0.8343960325894438 0.8315621679064824 0.8287283032235211 0.8273113708820403 0.8273113708820403 0.8273113708820403 0.8273113708820403 0.8273113708820403 0.8273113708820403 0.8273113708820403 0.8273113708820403 0.8159759121501948 0.7876372653205809 0.7281261069783918 0.6275239107332624 0.4688274884874247 0.33563584838823945 0.26478923131420473 0.17835635848388245 0.11459440311725112 0.06925256818986891 0.03241232731137088 0.009741409847679794 -0.0030109812256464696 -0.011512575274530644 -0.020014169323414814 -0.02284803400637614 -0.02284803400637614 -0.008678710591569326 0.01540913921360254 0.042330853701735734 0.07208643287283034 0.10609280906836692 0.1301806588735388 0.14293304994686507 0.15568544102019133 0.16560396741055616 0.16985476443499825 0.16985476443499825,618.1000000000057 638.1000000000057 658.1000000000057 678.1000000000057 698.1000000000058 718.1000000000058 738.1000000000058 758.1000000000058 778.1000000000058 798.1000000000058 818.1000000000058 838.1000000000058 858.1000000000058 878.1000000000058 898.1000000000058 918.1000000000056 938.1000000000056 958.1000000000056 978.1000000000056 998.1000000000056 1018.1000000000056 1038.1000000000058 1058.1000000000058 1078.1000000000058 1098.1000000000058 1118.1000000000058 1138.1000000000058 1158.1000000000058 1178.1000000000058 1198.1000000000058 1218.1000000000058 1238.1000000000058 1258.1000000000058 1278.1000000000058 1298.1000000000058 1318.1000000000058 1338.1000000000058 1358.1000000000058 1378.1000000000058
cb_09,6.0,enc_trial,stim,response,Miami trip,1422.4000000476804,enc_trial,1.0,6.0,t_m_05_1,travel_Miami,fold-d-single,sunscreen,9.0,unique,,single,t_m_05_1.jpg,Miami,travel-b1,Iceland trip,Miami trip,sub-36,1.0,,1.0,,0.4920297555791711 0.4920297555791711 0.4930924548352816 0.4941551540913922 0.4962805526036132 0.4994686503719448 0.4994686503719448 0.4952178533475027 0.4782146652497343 0.4558979808714134 0.4038257173219979 0.3485653560042508 0.3007438894792774 0.26992561105207225 0.2518597236981934 0.2412327311370882 0.2327311370882041 0.2252922422954304 0.2125398512221041 0.20403825717322 0.20403825717322 0.2125398512221041 0.2454835281615303 0.3283740701381509 0.4697130712008502 0.6227417640807651 0.7109458023379384 0.7917109458023379 0.8150903294367694 0.8161530286928799 0.8150903294367694 0.8150903294367694 0.8182784272051009 0.8225292242295429 0.8235919234856536 0.8257173219978746 0.8257173219978746 0.8257173219978746 0.8257173219978746 0.8278427205100957 0.8299681190223167 0.8310308182784272,0.8485653560042508 0.842897626638328 0.8301452355650017 0.8159759121501948 0.7933049946865037 0.7422954303931988 0.6473609635139922 0.4929153382925965 0.3115479985830677 0.20244420828905416 0.06358483882394618 -0.020014169323414814 -0.06677293659227779 -0.09086078639744954 -0.10077931278781448 -0.10219624512929504 -0.09936238044633372 -0.09369465108041086 -0.07810839532412328 -0.05827134254339361 -0.037017357421183165 -0.014346439957491963 0.006907545164718365 0.026744597945448145 0.042330853701735734 0.05650017711654265 0.06500177116542682 0.07633722989727243 0.08342189160467584 0.08767268862911792 0.09759121501948287 0.11317747077577045 0.12734679419057734 0.13868225292242298 0.14718384697130715 0.15851930570315265 0.1641870350690755 0.1641870350690755 0.16560396741055616 0.16985476443499825 0.17410556145944034 0.175522493800921,569.3999999999943 589.3999999999943 609.3999999999943 629.3999999999943 649.3999999999943 669.3999999999943 689.3999999999942 709.3999999999942 729.3999999999942 749.3999999999942 769.3999999999942 789.3999999999942 809.3999999999942 829.3999999999942 849.3999999999942 869.3999999999942 889.3999999999942 909.3999999999944 929.3999999999944 949.3999999999944 969.3999999999944 989.3999999999944 1009.3999999999944 1029.3999999999942 1049.3999999999942 1069.3999999999942 1089.3999999999942 1109.3999999999942 1129.3999999999942 1149.3999999999942 1169.3999999999942 1189.3999999999942 1209.3999999999942 1229.3999999999942 1249.3999999999942 1269.3999999999942 1289.3999999999942 1309.3999999999942 1329.3999999999942 1349.3999999999942 1369.3999999999942 1389.3999999999942
cb_09,7.0,enc_trial,stim,response,Miami trip,946.499999976164,enc_trial,1.0,7.0,t_m_13_1,travel_Miami,fold-d-single,floatie,9.0,unique,,single,t_m_13_1.jpg,Miami,travel-b1,Iceland trip,Miami trip,sub-36,1.0,,1.0,,0.4952178533475027 0.4941551540913922 0.4920297555791711 0.4888416578108396 0.4845908607863975 0.4803400637619554 0.4814027630180659 0.5026567481402763 0.5334750265674814 0.5717321997874601 0.6450584484590861 0.7013815090329437 0.7364505844845909 0.7608926673751328 0.7821466524973433 0.8012752391073327 0.8214665249734325 0.8352816153028693 0.8533475026567482 0.8682252922422954 0.8746014877789585 0.8756641870350691 0.8724760892667375 0.869287991498406 0.8682252922422954,0.8117251151257527 0.8018065887353879 0.7848034006376196 0.7607155508324477 0.7281261069783918 0.6785334750265675 0.5750974140984768 0.43340417995040736 0.2888770811193766 0.22369819341126465 0.15568544102019133 0.11034360609280902 0.08342189160467584 0.0664187035069076 0.05650017711654265 0.0508324477506199 0.049415515409139237 0.05366631243358133 0.06783563584838825 0.0848388239461566 0.10467587672688627 0.12309599716613527 0.14009918526390364 0.15001771165426847 0.15143464399574924,458.40000000000884 478.40000000000884 498.40000000000884 518.4000000000088 538.4000000000088 558.4000000000088 578.4000000000087 598.4000000000087 618.4000000000087 638.4000000000087 658.4000000000087 678.4000000000087 698.4000000000087 718.4000000000087 738.4000000000087 758.4000000000087 778.4000000000087 798.4000000000087 818.4000000000087 838.4000000000087 858.4000000000087 878.4000000000087 898.4000000000087 918.4000000000087 938.4000000000087
cb_09,8.0,enc_trial,stim,response,Miami trip,969.100000023842,enc_trial,1.0,8.0,t_m_19_1,travel_Miami,fold-b,surfboard,9.0,unique,close,paired,t_m_19_1.jpg,Miami,travel-b1,Iceland trip,Miami trip,sub-36,0.0,0.0,1.0,1.0,0.4941551540913922 0.4941551540913922 0.4941551540913922 0.4941551540913922 0.4962805526036132 0.5270988310308182 0.6259298618490967 0.7481402763018066 0.8544102019128587 0.9043570669500532 0.9224229543039321 0.9256110520722636 0.9192348565356004 0.9117959617428268 0.8990435706695006 0.8937300743889479 0.8926673751328374 0.8926673751328374 0.8926673751328374 0.8916046758767269 0.8905419766206164 0.8884165781083954,0.8400637619553666 0.8329791002479632 0.8159759121501948 0.7791356712716968 0.7153737159050655 0.5765143464399575 0.3852284803400637 0.2137796670208998 0.12026213248317395 0.09050655331207937 0.08058802692171453 0.07775416223875309 0.07917109458023375 0.08625575628763726 0.10184201204392496 0.11317747077577045 0.11459440311725112 0.11601133545873188 0.11601133545873188 0.11601133545873188 0.11601133545873188 0.1188452001416932,493.0 513.0 533.0 553.0 573.0 593.0 613.0 633.0 653.0 673.0 693.0 713.0 733.0 753.0 773.0 793.0 813.0 833.0 853.0 873.0 893.0 913.0
cb_09,9.0,enc_trial,stim,response,Miami trip,2067.9000000238448,enc_trial,1.0,9.0,t_s_10_1,travel_shared,fold-c,luggage lock,9.0,competing,far,paired,t_s_10_1.jpg,,travel-b1,Iceland trip,Miami trip,sub-36,1.0,1.0,0.0,1.0,0.4930924548352816 0.4920297555791711 0.4909670563230606 0.4899043570669501 0.487778958554729 0.4867162592986185 0.48565356004250804 0.4845908607863975 0.4824654622741764 0.4814027630180659 0.4782146652497343 0.4792773645058449 0.4824654622741764 0.4835281615302869 0.4824654622741764 0.4814027630180659 0.4792773645058449 0.4782146652497343 0.4760892667375133 0.4729011689691817 0.4675876726886291 0.4622741764080765 0.4548352816153029 0.4463336875664187 0.43783209351753455 0.4272051009564293 0.4155154091392136 0.3846971307120085 0.3273113708820404 0.2412327311370882 0.1689691817215728 0.13496280552603612 0.1275239107332625 0.1275239107332625 0.13071200850159406 0.13708820403825714 0.14133900106269925 0.14452709883103082 0.14665249734325184 0.14665249734325184 0.14665249734325184 0.14665249734325184 0.14665249734325184 0.14665249734325184 0.14665249734325184 0.14665249734325184 0.14665249734325184 0.14665249734325184 0.14665249734325184 0.14665249734325184 0.14665249734325184 0.14665249734325184 0.14665249734325184 0.14665249734325184 0.1477151965993624 0.17109458023379384 0.22422954303931988 0.3166843783209352 0.4782146652497343 0.5972369819341127 0.7725823591923485 0.9011689691817216 0.951115834218916 0.9606801275239109 0.9617428267800212 0.9617428267800212 0.9617428267800212 0.9638682252922424 0.9638682252922424 0.9617428267800212 0.9532412327311371 0.9383634431455898 0.91817215727949 0.8990435706695006 0.8916046758767269 0.8905419766206164,0.8414806942968474 0.8386468296138859 0.8372298972724053 0.8358129649309245 0.8358129649309245 0.8315621679064824 0.8188097768331563 0.80605738575983 0.7876372653205809 0.7720510095642933 0.7422954303931988 0.6827842720510096 0.6062699256110521 0.5495926319518243 0.5085015940488842 0.4801629472192703 0.4617428267800212 0.4518243003896564 0.4390719093163301 0.4277364505844846 0.4135671271696777 0.4008147360963514 0.3852284803400637 0.3597236981934112 0.30162947219270275 0.2307828551186681 0.1840240878498052 0.1188452001416932 0.07492029755579166 0.047998583067658473 0.03808005667729364 0.04091392136025507 0.049415515409139237 0.06358483882394618 0.07492029755579166 0.09334041799504078 0.10892667375132836 0.12026213248317395 0.1259298618490967 0.1259298618490967 0.1259298618490967 0.1259298618490967 0.1259298618490967 0.1259298618490967 0.1259298618490967 0.1259298618490967 0.1259298618490967 0.1259298618490967 0.1259298618490967 0.1259298618490967 0.1259298618490967 0.1259298618490967 0.1259298618490967 0.1259298618490967 0.1259298618490967 0.13584838823946155 0.16135317038611408 0.1911087495572087 0.2166135317038611 0.22653205809422605 0.2307828551186681 0.2166135317038611 0.19677647892313144 0.17977329082536309 0.16702089975203682 0.15568544102019133 0.13584838823946155 0.1188452001416932 0.09334041799504078 0.07633722989727243 0.06783563584838825 0.06500177116542682 0.0664187035069076 0.07633722989727243 0.08200495926319518 0.0848388239461566,548.6999999999971 568.6999999999971 588.6999999999971 608.6999999999971 628.6999999999971 648.6999999999971 668.6999999999971 688.6999999999971 708.6999999999971 728.6999999999971 748.6999999999971 768.6999999999971 788.6999999999971 808.6999999999971 828.6999999999971 848.6999999999971 868.6999999999971 888.6999999999971 908.6999999999972 928.6999999999972 948.6999999999972 968.6999999999972 988.6999999999972 1008.6999999999972 1028.6999999999969 1048.6999999999969 1068.6999999999969 1088.6999999999969 1108.6999999999969 1128.6999999999969 1148.6999999999969 1168.6999999999969 1188.6999999999969 1208.6999999999969 1228.6999999999969 1248.6999999999969 1268.6999999999969 1288.6999999999969 1308.6999999999969 1328.6999999999969 1348.6999999999969 1368.6999999999969 1388.6999999999969 1408.6999999999969 1428.6999999999969 1448.6999999999969 1468.6999999999969 1488.6999999999969 1508.6999999999969 1528.6999999999969 1548.6999999999969 1568.6999999999969 1588.6999999999969 1608.6999999999969 1628.6999999999969 1648.6999999999969 1668.6999999999969 1688.6999999999969 1708.6999999999969 1728.6999999999969 1748.6999999999969 1768.6999999999969 1788.6999999999969 1808.6999999999969 1828.6999999999969 1848.6999999999969 1868.6999999999969 1888.6999999999969 1908.6999999999969 1928.6999999999969 1948.6999999999969 1968.6999999999969 1988.6999999999969 2008.6999999999969 2028.6999999999969 2048.699999999997
cb_09,10.0,enc_trial,stim,response,Miami trip,1456.6999999761608,enc_trial,1.0,10.0,t_s_02_1,travel_shared,fold-b,water bottle,9.0,competing,close,paired,t_s_02_1.jpg,,travel-b1,Iceland trip,Miami trip,sub-36,1.0,1.0,0.0,0.0,0.4930924548352816 0.4930924548352816 0.4930924548352816 0.4930924548352816 0.4941551540913922 0.4973432518597237 0.51009564293305 0.5239107332624867 0.5334750265674814 0.5430393198724761 0.5589798087141339 0.5770456960680127 0.5982996811902231 0.6259298618490967 0.6588735387885228 0.6971307120085016 0.7385759829968119 0.7640807651434643 0.7938363443145591 0.8172157279489904 0.8342189160467588 0.8437832093517534 0.8480340063761955 0.8480340063761955 0.8469713071200851 0.8459086078639745 0.8448459086078641,0.8386468296138859 0.8202267091746369 0.7805526036131775 0.7196245129295076 0.6388593694651079 0.5283386468296138 0.4135671271696777 0.3228834573149132 0.2548707049238399 0.2109458023379384 0.1528515763372299 0.10467587672688627 0.06216790648246553 0.026744597945448145 -0.00017711654268515176 -0.020014169323414814 -0.02426496634785691 -0.01859723698193405 -0.00017711654268515176 0.022493800921006057 0.049415515409139237 0.07492029755579166 0.0961742826780021 0.11034360609280902 0.12309599716613527 0.12734679419057734 0.12876372653205814,569.5 589.5 609.5 629.5 649.5 669.5 689.5 709.5 729.5 749.5 769.5 789.5 809.5 829.5 849.5 869.5 889.5 909.5 929.5 949.5 969.5 989.5 1009.5 1029.5 1049.5 1069.5 1089.5
cb_09,11.0,enc_trial,stim,response,Miami trip,1245.1000000715285,enc_trial,1.0,11.0,t_m_06_2,travel_Miami,fold-c,handheld fan,9.0,unique,far,paired,t_m_06_2.jpg,Miami,travel-b1,Iceland trip,Miami trip,sub-36,0.0,0.0,1.0,1.0,0.5026567481402763 0.5015940488841658 0.4994686503719448 0.4962805526036132 0.4920297555791711 0.48565356004250804 0.4782146652497343 0.4729011689691817 0.4718384697130712 0.4729011689691817 0.4760892667375133 0.5005313496280552 0.5642933049946866 0.6291179596174282 0.6811902231668437 0.722635494155154 0.7481402763018066 0.7619553666312433 0.7768331562167906 0.7991498405951116 0.8235919234856536 0.842720510095643 0.8522848034006376 0.8586609989373007 0.8618490967056323 0.8618490967056323 0.8618490967056323 0.8618490967056323,0.8244775061990791 0.8202267091746369 0.8131420474672335 0.8018065887353879 0.7862203329791002 0.7635494155154091 0.7281261069783918 0.6586964222458378 0.546758767268863 0.4674105561459441 0.3653914275593341 0.2803754870704924 0.19252568189868927 0.1075097414098477 0.04516471838469716 0.006907545164718365 -0.011512575274530644 -0.017180304640453503 -0.01576337229897273 0.004073680481757047 0.03241232731137088 0.05224938009210056 0.0664187035069076 0.08058802692171453 0.1004250797024442 0.1188452001416932 0.1415161176053843 0.1486007793127878,680.4000000000087 700.4000000000087 720.4000000000087 740.4000000000087 760.4000000000087 780.4000000000087 800.4000000000087 820.4000000000087 840.4000000000087 860.4000000000087 880.4000000000087 900.4000000000087 920.4000000000087 940.4000000000087 960.4000000000087 980.4000000000087 1000.4000000000087 1020.4000000000087 1040.4000000000087 1060.4000000000087 1080.4000000000087 1100.4000000000087 1120.4000000000087 1140.4000000000087 1160.4000000000087 1180.4000000000087 1200.4000000000087 1220.4000000000087
cb_09,12.0,enc_trial,stim,response,Iceland trip,1061.0999999761552,enc_trial,1.0,12.0,t_i_19_1,travel_Iceland,fold-b,rope,9.0,unique,close,paired,t_i_19_1.jpg,Iceland,travel-b1,Iceland trip,Miami trip,sub-36,0.0,0.0,1.0,0.0,0.4984059511158342 0.4984059511158342 0.4984059511158342 0.4984059511158342 0.4984059511158342 0.4984059511158342 0.4984059511158342 0.4984059511158342 0.4984059511158342 0.4984059511158342 0.4984059511158342 0.4984059511158342 0.4984059511158342 0.4984059511158342 0.4984059511158342 0.4984059511158342 0.4984059511158342 0.4984059511158342 0.4984059511158342 0.4984059511158342 0.4984059511158342 0.4984059511158342 0.4984059511158342 0.4984059511158342 0.4984059511158342 0.4994686503719448 0.4994686503719448 0.5015940488841658 0.5058448459086079 0.5090329436769394 0.5111583421891605 0.5132837407013815 0.5132837407013815 0.5154091392136025 0.5154091392136025 0.51009564293305 0.4952178533475027 0.4665249734325186 0.4229543039319872 0.3772582359192349 0.3336875664187035 0.28905419766206164 0.2678002125398512 0.23804463336875664 0.21679064824654626 0.19872476089266736 0.17534537725823593 0.15727948990435706 0.15196599362380447 0.15090329436769395 0.15090329436769395,0.8570669500531349 0.8570669500531349 0.8570669500531349 0.8570669500531349 0.8570669500531349 0.8570669500531349 0.8570669500531349 0.8570669500531349 0.8570669500531349 0.8570669500531349 0.8570669500531349 0.8570669500531349 0.8570669500531349 0.8570669500531349 0.8570669500531349 0.8570669500531349 0.8570669500531349 0.8570669500531349 0.8570669500531349 0.8570669500531349 0.8570669500531349 0.8570669500531349 0.8570669500531349 0.8542330853701736 0.8443145589798087 0.8315621679064824 0.8216436415161176 0.7975557917109458 0.7720510095642933 0.7465462274176409 0.7210414452709883 0.6827842720510096 0.6190223166843783 0.5410910379029401 0.4971661353170386 0.4419057739992915 0.3823946156571024 0.3157987956075098 0.23786751682607155 0.1641870350690755 0.10892667375132836 0.07633722989727243 0.06783563584838825 0.06358483882394618 0.06925256818986891 0.08767268862911792 0.12026213248317395 0.1486007793127878 0.15993623804463342 0.16277010272759473 0.1641870350690755,27.69999999999709 47.69999999999709 67.69999999999709 87.6999999999971 107.69999999999708 127.69999999999708 147.6999999999971 167.6999999999971 187.6999999999971 207.6999999999971 227.6999999999971 247.6999999999971 267.6999999999971 287.69999999999715 307.69999999999715 327.69999999999715 347.6999999999971 367.6999999999971 387.6999999999971 407.6999999999971 427.6999999999971 447.6999999999971 467.6999999999971 487.6999999999971 507.6999999999971 527.6999999999971 547.6999999999971 567.6999999999971 587.6999999999971 607.6999999999971 627.6999999999971 647.6999999999971 667.6999999999971 687.6999999999971 707.6999999999971 727.6999999999971 747.6999999999971 767.6999999999971 787.6999999999971 807.6999999999971 827.6999999999971 847.6999999999971 867.6999999999971 887.6999999999971 907.6999999999972 927.6999999999972 947.6999999999972 967.6999999999972 987.6999999999972 1007.6999999999972 1027.6999999999969
cb_09,13.0,enc_trial,stim,response,Iceland trip,1480.8000000238392,enc_trial,1.0,13.0,t_s_02_2,travel_shared,fold-b,water bottle,9.0,competing,close,paired,t_s_02_2.jpg,,travel-b1,Iceland trip,Miami trip,sub-36,1.0,1.0,0.0,0.0,0.4973432518597237 0.4973432518597237 0.4984059511158342 0.4984059511158342 0.4973432518597237 0.4920297555791711 0.487778958554729 0.4824654622741764 0.4729011689691817 0.463336875664187 0.44208289054197664 0.4208289054197662 0.4006376195536664 0.3761955366631243 0.3336875664187035 0.2858660998937301 0.2412327311370882 0.21785334750265675 0.18597236981934112 0.16790648246546228 0.15515409139213598 0.1487778958554729 0.14452709883103082 0.1434643995749203 0.1434643995749203 0.1434643995749203 0.1434643995749203 0.1434643995749203 0.14558979808714134 0.15090329436769395 0.15621679064824653 0.1594048884165781 0.16046758767268862 0.16046758767268862 0.16046758767268862 0.16046758767268862 0.16046758767268862 0.16046758767268862 0.16046758767268862 0.16046758767268862 0.16046758767268862 0.16046758767268862 0.16046758767268862 0.16046758767268862 0.16046758767268862 0.16046758767268862 0.16046758767268862 0.16046758767268862 0.16046758767268862 0.16046758767268862 0.16046758767268862 0.16046758767268862 0.1594048884165781 0.1594048884165781,0.8372298972724053 0.8301452355650017 0.8145589798087142 0.7975557917109458 0.777718738930216 0.7507970244420828 0.6927027984413745 0.6076868579525327 0.5028338646829613 0.4362380446333688 0.34413744243712363 0.2860432164364152 0.2520368402408785 0.22511512575274528 0.18969181721572792 0.15001771165426847 0.11317747077577045 0.09759121501948287 0.07775416223875309 0.06925256818986891 0.06358483882394618 0.06075097414098474 0.05933404179950408 0.05791710945802344 0.05791710945802344 0.05791710945802344 0.05791710945802344 0.05791710945802344 0.06358483882394618 0.07775416223875309 0.09192348565356 0.10184201204392496 0.10467587672688627 0.10467587672688627 0.10467587672688627 0.10467587672688627 0.10467587672688627 0.10467587672688627 0.10467587672688627 0.10467587672688627 0.10467587672688627 0.10467587672688627 0.10467587672688627 0.10467587672688627 0.10467587672688627 0.10467587672688627 0.10467587672688627 0.10467587672688627 0.10467587672688627 0.10467587672688627 0.10467587672688627 0.10467587672688627 0.10467587672688627 0.10609280906836692,430.59999999999116 450.59999999999116 470.59999999999116 490.59999999999116 510.59999999999116 530.5999999999912 550.5999999999912 570.5999999999913 590.5999999999913 610.5999999999913 630.5999999999913 650.5999999999913 670.5999999999913 690.5999999999913 710.5999999999913 730.5999999999913 750.5999999999913 770.5999999999913 790.5999999999913 810.5999999999913 830.5999999999913 850.5999999999913 870.5999999999913 890.5999999999913 910.5999999999913 930.5999999999913 950.5999999999913 970.5999999999913 990.5999999999913 1010.5999999999913 1030.5999999999913 1050.5999999999913 1070.5999999999913 1090.5999999999913 1110.5999999999913 1130.5999999999913 1150.5999999999913 1170.5999999999913 1190.5999999999913 1210.5999999999913 1230.5999999999913 1250.5999999999913 1270.5999999999913 1290.5999999999913 1310.5999999999913 1330.5999999999913 1350.5999999999913 1370.5999999999913 1390.599999999991 1410.599999999991 1430.599999999991 1450.599999999991 1470.599999999991 1490.599999999991
cb_09,14.0,enc_trial,stim,response,Miami trip,1180.5,enc_trial,1.0,14.0,t_s_23_1,travel_shared,fold-c,ball cap,9.0,competing,far,paired,t_s_23_1.jpg,,travel-b1,Iceland trip,Miami trip,sub-36,1.0,1.0,0.0,1.0,0.4994686503719448 0.4994686503719448 0.4984059511158342 0.4984059511158342 0.4984059511158342 0.4984059511158342 0.4984059511158342 0.4994686503719448 0.5005313496280552 0.5015940488841658 0.5079702444208289 0.5260361317747078 0.5451647183846972 0.5621679064824655 0.5749202975557917 0.5791710945802337 0.5823591923485654 0.5866099893730075 0.5961742826780021 0.6078639744952179 0.6259298618490967 0.6546227417640808 0.7077577045696068 0.7821466524973433 0.8586609989373007 0.9117959617428268 0.930924548352816 0.942614240170032 0.9404888416578108 0.9351753453772582 0.9287991498405952 0.924548352816153 0.9160467587672688 0.9075451647183846 0.9011689691817216 0.8947927736450585 0.8916046758767269 0.8905419766206164,0.8103081827842721 0.8046404534183493 0.7933049946865037 0.7819695359546581 0.7706340772228126 0.759298618490967 0.7451292950761601 0.7210414452709883 0.6756996103436061 0.6416932341480694 0.573680481756996 0.4603258944385406 0.3413035777541622 0.2392844491675522 0.16277010272759473 0.10467587672688627 0.05508324477506199 0.02532766560396737 -0.017180304640453503 -0.046935883811547896 -0.06110520722635492 -0.06110520722635492 -0.04126815444562526 -0.011512575274530644 0.02391073326248672 0.06216790648246553 0.08200495926319518 0.10609280906836692 0.12167906482465465 0.1301806588735388 0.13584838823946155 0.14009918526390364 0.14434998228834572 0.15001771165426847 0.15426850867871056 0.16135317038611408 0.1641870350690755 0.16560396741055616,430.3999999999942 450.3999999999942 470.3999999999942 490.3999999999942 510.3999999999942 530.3999999999942 550.3999999999942 570.3999999999943 590.3999999999943 610.3999999999943 630.3999999999943 650.3999999999943 670.3999999999943 690.3999999999942 710.3999999999942 730.3999999999942 750.3999999999942 770.3999999999942 790.3999999999942 810.3999999999942 830.3999999999942 850.3999999999942 870.3999999999942 890.3999999999942 910.3999999999942 930.3999999999942 950.3999999999942 970.3999999999942 990.3999999999942 1010.3999999999942 1030.3999999999942 1050.3999999999942 1070.3999999999942 1090.3999999999942 1110.3999999999942 1130.3999999999942 1150.3999999999942 1170.3999999999942
cb_09,15.0,enc_trial,stim,response,Iceland trip,1161.3999999999942,enc_trial,1.0,15.0,t_m_19_2,travel_Miami,fold-b,surfboard,9.0,unique,close,paired,t_m_19_2.jpg,Miami,travel-b1,Iceland trip,Miami trip,sub-36,0.0,0.0,1.0,1.0,0.4973432518597237 0.4962805526036132 0.5005313496280552 0.5334750265674814 0.6099893730074389 0.7024442082890542 0.7757704569606801 0.8204038257173221 0.8374070138150903 0.8416578108395324 0.842720510095643 0.842720510095643 0.842720510095643 0.8395324123273114 0.824654622741764 0.7853347502656748 0.6992561105207227 0.6099893730074389 0.4675876726886291 0.32624867162592985 0.2412327311370882 0.21360255047821464 0.2125398512221041 0.20935175345377247 0.1997874601487779 0.18384697130712008 0.17109458023379384 0.1594048884165781 0.15621679064824653 0.15515409139213598 0.15302869287991502 0.14558979808714134 0.1381509032943677,0.8173928444916755 0.7933049946865037 0.7167906482465463 0.5991852639036486 0.4348211122918879 0.2690400283386468 0.15993623804463342 0.1075097414098477 0.09475735033652144 0.09192348565356 0.09192348565356 0.09192348565356 0.0961742826780021 0.10609280906836692 0.1259298618490967 0.15993623804463342 0.19677647892313144 0.2109458023379384 0.2166135317038611 0.21236273467941905 0.2095288699964577 0.20811193765497693 0.20669500531349627 0.20102727594757352 0.19252568189868927 0.18119022316684366 0.17410556145944034 0.16702089975203682 0.1641870350690755 0.1641870350690755 0.16135317038611408 0.15851930570315265 0.15426850867871056,465.2999999999884 485.2999999999884 505.2999999999884 525.2999999999884 545.2999999999884 565.2999999999884 585.2999999999884 605.2999999999884 625.2999999999884 645.2999999999884 665.2999999999884 685.2999999999884 705.2999999999884 725.2999999999884 745.2999999999884 765.2999999999884 785.2999999999884 805.2999999999884 825.2999999999884 845.2999999999884 865.2999999999884 885.2999999999884 905.2999999999884 925.2999999999884 945.2999999999884 965.2999999999884 985.2999999999884 1005.2999999999884 1025.2999999999884 1045.2999999999884 1065.2999999999884 1085.2999999999884 1105.2999999999884
cb_09,16.0,enc_trial,stim,response,Miami trip,938.499999976164,enc_trial,1.0,16.0,t_m_03_1,travel_Miami,fold-c,wetsuit,9.0,unique,far,paired,t_m_03_1.jpg,Miami,travel-b1,Iceland trip,Miami trip,sub-36,1.0,1.0,1.0,1.0,0.4941551540913922 0.4941551540913922 0.4941551540913922 0.4941551540913922 0.4941551540913922 0.4941551540913922 0.4941551540913922 0.4941551540913922 0.4941551540913922 0.4941551540913922 0.4941551540913922 0.4941551540913922 0.4941551540913922 0.4941551540913922 0.4941551540913922 0.4941551540913922 0.4941551540913922 0.4941551540913922 0.4941551540913922 0.4941551540913922 0.4941551540913922 0.4941551540913922 0.4941551540913922 0.4941551540913922 0.4941551540913922 0.4941551540913922 0.4941551540913922 0.4973432518597237 0.5069075451647184 0.5281615302869288 0.5494155154091392 0.5759829968119022 0.6142401700318809 0.6578108395324124 0.6886291179596175 0.740701381509033 0.7970244420828906 0.8416578108395324 0.8682252922422954 0.8820403825717322 0.8894792773645058 0.8947927736450585 0.8969181721572795 0.8990435706695006 0.8990435706695006 0.900106269925611,0.8273113708820403 0.8273113708820403 0.8273113708820403 0.8273113708820403 0.8273113708820403 0.8273113708820403 0.8273113708820403 0.8273113708820403 0.8273113708820403 0.8273113708820403 0.8273113708820403 0.8273113708820403 0.8273113708820403 0.8273113708820403 0.8273113708820403 0.8273113708820403 0.8273113708820403 0.8273113708820403 0.8273113708820403 0.8273113708820403 0.8273113708820403 0.8273113708820403 0.8273113708820403 0.8273113708820403 0.8273113708820403 0.8074743181013107 0.7833864682961389 0.7252922422954304 0.6402763018065887 0.518420120439249 0.4008147360963514 0.2917109458023379 0.20102727594757352 0.13868225292242298 0.11601133545873188 0.1004250797024442 0.0961742826780021 0.10184201204392496 0.1117605384342898 0.12167906482465465 0.1301806588735388 0.13868225292242298 0.14293304994686507 0.14718384697130715 0.1486007793127878 0.1486007793127878,34.70000000001164 54.70000000001164 74.70000000001164 94.70000000001164 114.70000000001164 134.70000000001164 154.7000000000116 174.70000000001164 194.70000000001164 214.70000000001164 234.70000000001164 254.70000000001164 274.70000000001164 294.70000000001164 314.70000000001164 334.70000000001164 354.7000000000116 374.7000000000117 394.7000000000117 414.7000000000117 434.7000000000117 454.7000000000117 474.7000000000117 494.7000000000117 514.7000000000116 534.7000000000116 554.7000000000116 574.7000000000116 594.7000000000116 614.7000000000116 634.7000000000116 654.7000000000116 674.7000000000116 694.7000000000116 714.7000000000116 734.7000000000116 754.7000000000116 774.7000000000116 794.7000000000116 814.7000000000116 834.7000000000116 854.7000000000116 874.7000000000116 894.7000000000116 914.7000000000116 934.7000000000116
cb_09,17.0,enc_trial,stim,response,Miami trip,1365.0999999761552,enc_trial,1.0,17.0,t_m_18_1,travel_Miami,fold-b,waterproof tote,9.0,unique,close,paired,t_m_18_1.jpg,Miami,travel-b1,Iceland trip,Miami trip,sub-36,0.0,0.0,1.0,0.0,0.5058448459086079 0.5058448459086079 0.5058448459086079 0.5058448459086079 0.5058448459086079 0.5058448459086079 0.5058448459086079 0.5058448459086079 0.5058448459086079 0.5058448459086079 0.5058448459086079 0.5047821466524973 0.5026567481402763 0.5026567481402763 0.512221041445271 0.5398512221041445 0.5642933049946866 0.5727948990435706 0.5844845908607864 0.5940488841657809 0.6078639744952179 0.6280552603613178 0.6609989373007439 0.7130712008501594 0.7895855472901169 0.8660998937300743 0.9043570669500532 0.9394261424017004 0.9458023379383634 0.942614240170032 0.9351753453772582 0.9287991498405952 0.924548352816153 0.9234856535600424 0.9234856535600424 0.9234856535600424 0.9224229543039321 0.9224229543039321 0.9224229543039321 0.9224229543039321 0.9202975557917108 0.9149840595111584 0.9096705632306056 0.8969181721572795 0.8841657810839533 0.8756641870350691 0.873538788522848,0.8358129649309245 0.8358129649309245 0.8358129649309245 0.8358129649309245 0.8343960325894438 0.8343960325894438 0.8343960325894438 0.8343960325894438 0.8343960325894438 0.8343960325894438 0.8329791002479632 0.8145589798087142 0.7678002125398512 0.6969535954658166 0.6062699256110521 0.4914984059511158 0.3923131420474673 0.3413035777541622 0.26762309599716616 0.2095288699964577 0.15851930570315265 0.11601133545873188 0.07633722989727243 0.047998583067658473 0.04374778604321639 0.06216790648246553 0.08342189160467584 0.11601133545873188 0.1415161176053843 0.16135317038611408 0.17410556145944034 0.18544102019128586 0.1911087495572087 0.19252568189868927 0.19252568189868927 0.19252568189868927 0.19252568189868927 0.19252568189868927 0.19252568189868927 0.19252568189868927 0.1911087495572087 0.18544102019128586 0.17977329082536309 0.16702089975203682 0.15568544102019133 0.14718384697130715 0.14434998228834572,347.3000000000029 367.3000000000029 387.3000000000029 407.3000000000029 427.3000000000029 447.3000000000029 467.3000000000029 487.3000000000029 507.3000000000029 527.3000000000029 547.3000000000029 567.3000000000029 587.3000000000029 607.3000000000029 627.3000000000029 647.3000000000029 667.3000000000029 687.3000000000029 707.3000000000029 727.3000000000029 747.3000000000029 767.3000000000029 787.3000000000029 807.3000000000029 827.3000000000029 847.3000000000029 867.3000000000029 887.3000000000029 907.3000000000028 927.3000000000028 947.3000000000028 967.3000000000028 987.3000000000028 1007.3000000000028 1027.3000000000031 1047.3000000000031 1067.3000000000031 1087.3000000000031 1107.3000000000031 1127.3000000000031 1147.3000000000031 1167.3000000000031 1187.3000000000031 1207.3000000000031 1227.3000000000031 1247.3000000000031 1267.3000000000031
cb_09,18.0,enc_trial,stim,response,Miami trip,1609.3999999761581,enc_trial,1.0,18.0,t_i_19_2,travel_Iceland,fold-b,rope,9.0,unique,close,paired,t_i_19_2.jpg,Iceland,travel-b1,Iceland trip,Miami trip,sub-36,0.0,0.0,1.0,0.0,0.5111583421891605 0.51009564293305 0.5090329436769394 0.5079702444208289 0.5079702444208289 0.5058448459086079 0.5047821466524973 0.5037194473963869 0.5037194473963869 0.5037194473963869 0.5037194473963869 0.5047821466524973 0.512221041445271 0.5164718384697131 0.5175345377258236 0.5037194473963869 0.4729011689691817 0.44845908607863977 0.4059511158342189 0.3645058448459086 0.32624867162592985 0.2933049946865037 0.26992561105207225 0.25292242295430395 0.2391073326248672 0.23060573857598304 0.22741764080765145 0.23804463336875664 0.2858660998937301 0.3974495217853348 0.565356004250797 0.7056323060573858 0.7917109458023379 0.8320935175345378 0.8459086078639745 0.8629117959617428 0.8756641870350691 0.8852284803400637 0.8894792773645058 0.8905419766206164 0.8905419766206164 0.8905419766206164 0.8905419766206164 0.8894792773645058,0.7890541976620616 0.7876372653205809 0.7848034006376196 0.7819695359546581 0.777718738930216 0.7692171448813319 0.7536308891250443 0.7309599716613532 0.6927027984413745 0.6671980162947221 0.6119376549769748 0.5425079702444209 0.4674105561459441 0.3965639390719093 0.32855118668083594 0.2690400283386468 0.2137796670208998 0.19252568189868927 0.16702089975203682 0.14718384697130715 0.13301452355650026 0.12026213248317395 0.11317747077577045 0.10892667375132836 0.10609280906836692 0.10325894438540564 0.09759121501948287 0.0848388239461566 0.06500177116542682 0.04374778604321639 0.030995394969890237 0.026744597945448145 0.03808005667729364 0.05224938009210056 0.06075097414098474 0.07350336521431099 0.08625575628763726 0.1004250797024442 0.11317747077577045 0.12451292950761605 0.13301452355650026 0.13868225292242298 0.13868225292242298 0.14009918526390364,222.1999999999971 242.1999999999971 262.1999999999971 282.19999999999715 302.19999999999715 322.19999999999715 342.19999999999715 362.1999999999971 382.1999999999971 402.1999999999971 422.1999999999971 442.1999999999971 462.1999999999971 482.1999999999971 502.1999999999971 522.1999999999971 542.1999999999971 562.1999999999971 582.1999999999971 602.1999999999971 622.1999999999971 642.1999999999971 662.1999999999971 682.1999999999971 702.1999999999971 722.1999999999971 742.1999999999971 762.1999999999971 782.1999999999971 802.1999999999971 822.1999999999971 842.1999999999971 862.1999999999971 882.1999999999971 902.1999999999972 922.1999999999972 942.1999999999972 962.1999999999972 982.1999999999972 1002.1999999999972 1022.1999999999972 1042.1999999999969 1062.1999999999969 1082.1999999999969
cb_09,19.0,enc_trial,stim,response,Miami trip,1182.0000000476864,enc_trial,1.0,19.0,t_s_06_1,travel_shared,fold-b,luggage,9.0,competing,close,paired,t_s_06_1.jpg,,travel-b1,Iceland trip,Miami trip,sub-36,1.0,1.0,1.0,1.0,0.4920297555791711 0.5143464399574921 0.5855472901168969 0.6716259298618491 0.7502656748140276 0.824654622741764 0.8777895855472901 0.9086078639744952 0.924548352816153 0.9298618490967056 0.930924548352816 0.930924548352816 0.930924548352816 0.930924548352816 0.930924548352816 0.930924548352816 0.930924548352816 0.930924548352816 0.926673751328374 0.9149840595111584 0.9032943676939428 0.8916046758767269 0.8852284803400637 0.8831030818278427,0.8273113708820403 0.7961388593694652 0.7054551895147007 0.5750974140984768 0.4390719093163301 0.3072972015586256 0.2109458023379384 0.15001771165426847 0.11742826780021255 0.1075097414098477 0.10467587672688627 0.10467587672688627 0.10467587672688627 0.10609280906836692 0.10609280906836692 0.10609280906836692 0.10609280906836692 0.10609280906836692 0.11034360609280902 0.1188452001416932 0.1259298618490967 0.13159759121501946 0.1344314558979809 0.13584838823946155,583.3000000000029 603.3000000000029 623.3000000000029 643.3000000000029 663.3000000000029 683.3000000000029 703.3000000000029 723.3000000000029 743.3000000000029 763.3000000000029 783.3000000000029 803.3000000000029 823.3000000000029 843.3000000000029 863.3000000000029 883.3000000000029 903.3000000000028 923.3000000000028 943.3000000000028 963.3000000000028 983.3000000000028 1003.3000000000028 1023.3000000000028 1043.3000000000031
cb_09,20.0,enc_trial,stim,response,Iceland trip,1173.7999999999886,enc_trial,1.0,20.0,t_s_04_1,travel_shared,fold-c,instant camera,9.0,competing,far,paired,t_s_04_1.jpg,,travel-b1,Iceland trip,Miami trip,sub-36,1.0,1.0,1.0,1.0,0.51009564293305 0.51009564293305 0.5090329436769394 0.5090329436769394 0.5069075451647184 0.5069075451647184 0.5090329436769394 0.51009564293305 0.51009564293305 0.5090329436769394 0.5037194473963869 0.4899043570669501 0.4686503719447396 0.43783209351753455 0.39213602550478216 0.3336875664187035 0.2678002125398512 0.2295430393198725 0.1849096705632306 0.16259298618490967 0.15621679064824653 0.15515409139213598 0.15409139213602552 0.15196599362380447 0.15196599362380447 0.15196599362380447 0.15196599362380447 0.15196599362380447 0.15196599362380447 0.15196599362380447 0.15196599362380447 0.15196599362380447 0.15090329436769395 0.15090329436769395 0.15090329436769395 0.14984059511158346,0.8046404534183493 0.7933049946865037 0.7763018065887354 0.7465462274176409 0.7068721218561813 0.6501948281969536 0.573680481756996 0.4617428267800212 0.33988664541268154 0.2860432164364152 0.22511512575274528 0.1826071555083245 0.15143464399574924 0.12876372653205814 0.1117605384342898 0.1004250797024442 0.0961742826780021 0.0961742826780021 0.1004250797024442 0.10892667375132836 0.12026213248317395 0.1301806588735388 0.13868225292242298 0.14293304994686507 0.14293304994686507 0.14293304994686507 0.14293304994686507 0.14293304994686507 0.14293304994686507 0.14293304994686507 0.14293304994686507 0.14009918526390364 0.13868225292242298 0.13868225292242298 0.13868225292242298 0.13868225292242298,458.6000000000058 478.6000000000058 498.6000000000058 518.6000000000058 538.6000000000058 558.6000000000058 578.6000000000057 598.6000000000057 618.6000000000057 638.6000000000057 658.6000000000057 678.6000000000057 698.6000000000058 718.6000000000058 738.6000000000058 758.6000000000058 778.6000000000058 798.6000000000058 818.6000000000058 838.6000000000058 858.6000000000058 878.6000000000058 898.6000000000058 918.6000000000058 938.6000000000058 958.6000000000058 978.6000000000058 998.6000000000058 1018.6000000000058 1038.6000000000058 1058.6000000000058 1078.6000000000058 1098.6000000000058 1118.6000000000058 1138.6000000000058 1158.6000000000058
cb_09,21.0,enc_trial,stim,response,Iceland trip,1640.999999976164,enc_trial,1.0,21.0,t_m_18_2,travel_Miami,fold-b,waterproof tote,9.0,unique,close,paired,t_m_18_2.jpg,Miami,travel-b1,Iceland trip,Miami trip,sub-36,0.0,0.0,1.0,0.0,0.5207226354941552 0.5207226354941552 0.5217853347502657 0.5217853347502657 0.5228480340063762 0.5228480340063762 0.5228480340063762 0.5196599362380446 0.5164718384697131 0.512221041445271 0.4984059511158342 0.4867162592986185 0.463336875664187 0.4282678002125399 0.39213602550478216 0.3623804463336875 0.34006376195536664 0.3273113708820404 0.31030818278427197 0.29861849096705634 0.28905419766206164 0.2858660998937301 0.28374070138150903 0.2826780021253985 0.28161530286928804 0.28161530286928804 0.2826780021253985 0.28374070138150903 0.2933049946865037 0.33049946865037194 0.4027630180658874 0.5175345377258236 0.6354941551540914 0.7375132837407014 0.7853347502656748 0.8193411264612115 0.8289054197662061 0.8299681190223167 0.8299681190223167 0.8310308182784272 0.8278427205100957 0.7970244420828906 0.7523910733262487 0.6461211477151966 0.5037194473963869 0.3793836344314559 0.2922422954303932 0.2561105207226355 0.25292242295430395 0.25292242295430395 0.25292242295430395 0.25292242295430395 0.25292242295430395 0.25292242295430395 0.25292242295430395 0.25292242295430395 0.2391073326248672 0.206163655685441 0.16790648246546228 0.14558979808714134 0.12858660998937302 0.12646121147715195,0.8216436415161176 0.8216436415161176 0.8145589798087142 0.8046404534183493 0.7876372653205809 0.7663832801983705 0.7366277010272759 0.694119730782855 0.6388593694651079 0.5906836698547644 0.4829968119022317 0.3639744952178533 0.25345377258235924 0.18119022316684366 0.1415161176053843 0.11317747077577045 0.0961742826780021 0.08767268862911792 0.08058802692171453 0.07775416223875309 0.07775416223875309 0.07775416223875309 0.07775416223875309 0.08058802692171453 0.0848388239461566 0.09334041799504078 0.09759121501948287 0.10184201204392496 0.10467587672688627 0.10467587672688627 0.10609280906836692 0.11034360609280902 0.11742826780021255 0.12451292950761605 0.12876372653205814 0.1344314558979809 0.14009918526390364 0.14434998228834572 0.1486007793127878 0.1486007793127878 0.15143464399574924 0.15426850867871056 0.15568544102019133 0.15993623804463342 0.1641870350690755 0.16702089975203682 0.1712716967764789 0.17410556145944034 0.17410556145944034 0.17410556145944034 0.17410556145944034 0.17410556145944034 0.17410556145944034 0.17410556145944034 0.17410556145944034 0.17410556145944034 0.17268862911795954 0.16843783209351748 0.1641870350690755 0.16277010272759473 0.15993623804463342 0.15993623804463342,402.8999999999942 422.8999999999942 442.8999999999942 462.8999999999942 482.8999999999942 502.8999999999942 522.8999999999942 542.8999999999942 562.8999999999942 582.8999999999943 602.8999999999943 622.8999999999943 642.8999999999943 662.8999999999943 682.8999999999943 702.8999999999942 722.8999999999942 742.8999999999942 762.8999999999942 782.8999999999942 802.8999999999942 822.8999999999942 842.8999999999942 862.8999999999942 882.8999999999942 902.8999999999942 922.8999999999942 942.8999999999942 962.8999999999942 982.8999999999942 1002.8999999999942 1022.8999999999942 1042.8999999999942 1062.8999999999942 1082.8999999999942 1102.8999999999942 1122.8999999999942 1142.8999999999942 1162.8999999999942 1182.8999999999942 1202.8999999999942 1222.8999999999942 1242.8999999999942 1262.8999999999942 1282.8999999999942 1302.8999999999942 1322.8999999999942 1342.8999999999942 1362.8999999999942 1382.8999999999942 1402.8999999999942 1422.8999999999942 1442.8999999999942 1462.8999999999942 1482.8999999999942 1502.8999999999942 1522.8999999999942 1542.8999999999942 1562.8999999999942 1582.8999999999942 1602.8999999999942 1622.8999999999942
cb_09,22.0,enc_trial,stim,response,Miami trip,2040.4000000476958,enc_trial,1.0,22.0,t_s_24_2,travel_shared,fold-c,ear plugs,9.0,competing,far,paired,t_s_24_2.jpg,,travel-b1,Iceland trip,Miami trip,sub-36,1.0,1.0,1.0,1.0,0.5164718384697131 0.5132837407013815 0.5047821466524973 0.4909670563230606 0.4697130712008502 0.4495217853347503 0.4335812964930925 0.4208289054197662 0.4080765143464399 0.3974495217853348 0.3910733262486717 0.4272051009564293 0.4686503719447396 0.5058448459086079 0.5579171094580234 0.6184909670563231 0.6758767268862912 0.7088204038257173 0.7492029755579172 0.7672688629117959 0.7715196599362381 0.7715196599362381 0.7704569606801275 0.7704569606801275 0.7704569606801275 0.7704569606801275 0.7704569606801275 0.7704569606801275 0.7704569606801275 0.7704569606801275 0.7651434643995749 0.742826780021254 0.6854410201912858 0.5993623804463337 0.5324123273113709 0.4208289054197662 0.3294367693942614 0.28161530286928804 0.2603613177470776 0.2507970244420829 0.2391073326248672 0.22210414452709884 0.206163655685441 0.17534537725823593 0.14452709883103082 0.12858660998937302 0.12539851222104145 0.1232731137088204 0.12221041445270987 0.12221041445270987 0.12221041445270987 0.12221041445270987 0.12221041445270987 0.12221041445270987 0.12221041445270987 0.12221041445270987 0.12221041445270987 0.12221041445270987 0.12221041445270987 0.12221041445270987 0.12221041445270987 0.12221041445270987 0.12221041445270987 0.12221041445270987 0.13283740701381508 0.1944739638682253 0.33475026567481403 0.4410201912858661 0.589798087141339 0.7088204038257173 0.7853347502656748 0.824654622741764 0.8448459086078641 0.8554729011689692 0.8575982996811902,0.7947219270279844 0.7876372653205809 0.7649663478568898 0.7267091746369111 0.6700318809776833 0.5963513992206873 0.4829968119022317 0.33563584838823945 0.22511512575274528 0.16560396741055616 0.08342189160467584 -0.012929507616011415 -0.09086078639744954 -0.1262840949344668 -0.148955012398158 -0.1418703506907546 -0.10644704215373713 -0.07669146298264251 -0.03134962805526032 0.004073680481757047 0.03524619199433232 0.06216790648246553 0.08200495926319518 0.08908962097059869 0.09192348565356 0.09192348565356 0.09192348565356 0.09192348565356 0.09192348565356 0.09192348565356 0.09192348565356 0.09192348565356 0.09192348565356 0.0961742826780021 0.1004250797024442 0.1117605384342898 0.12451292950761605 0.12876372653205814 0.12876372653205814 0.12876372653205814 0.12451292950761605 0.12026213248317395 0.11601133545873188 0.10892667375132836 0.10325894438540564 0.10184201204392496 0.10184201204392496 0.10325894438540564 0.10325894438540564 0.10325894438540564 0.10325894438540564 0.10325894438540564 0.10325894438540564 0.10325894438540564 0.10325894438540564 0.10325894438540564 0.10325894438540564 0.10325894438540564 0.10325894438540564 0.10325894438540564 0.10325894438540564 0.10325894438540564 0.10325894438540564 0.10325894438540564 0.10467587672688627 0.1117605384342898 0.12451292950761605 0.13159759121501946 0.14009918526390364 0.14718384697130715 0.1528515763372299 0.15851930570315265 0.1641870350690755 0.16843783209351748 0.16985476443499825,541.8000000000175 561.8000000000175 581.8000000000175 601.8000000000175 621.8000000000175 641.8000000000175 661.8000000000175 681.8000000000175 701.8000000000176 721.8000000000176 741.8000000000176 761.8000000000176 781.8000000000176 801.8000000000176 821.8000000000176 841.8000000000176 861.8000000000176 881.8000000000176 901.8000000000177 921.8000000000177 941.8000000000177 961.8000000000177 981.8000000000177 1001.8000000000177 1021.8000000000177 1041.8000000000177 1061.8000000000177 1081.8000000000177 1101.8000000000177 1121.8000000000177 1141.8000000000175 1161.8000000000175 1181.8000000000175 1201.8000000000175 1221.8000000000175 1241.8000000000175 1261.8000000000175 1281.8000000000175 1301.8000000000175 1321.8000000000175 1341.8000000000175 1361.8000000000175 1381.8000000000175 1401.8000000000175 1421.8000000000175 1441.8000000000175 1461.8000000000175 1481.8000000000175 1501.8000000000175 1521.8000000000175 1541.8000000000175 1561.8000000000175 1581.8000000000175 1601.8000000000175 1621.8000000000175 1641.8000000000175 1661.8000000000175 1681.8000000000175 1701.8000000000175 1721.8000000000175 1741.8000000000175 1761.8000000000175 1781.8000000000175 1801.8000000000175 1821.8000000000175 1841.8000000000175 1861.8000000000175 1881.8000000000175 1901.8000000000175 1921.8000000000175 1941.8000000000175 1961.8000000000175 1981.8000000000175 2001.8000000000175 2021.8000000000175
cb_09,23.0,enc_trial,stim,response,Iceland trip,947.7000000715198,enc_trial,1.0,23.0,t_i_14_1,travel_Iceland,fold-c,snow pants,9.0,unique,far,paired,t_i_14_1.jpg,Iceland,travel-b1,Iceland trip,Miami trip,sub-36,1.0,1.0,1.0,1.0,0.4962805526036132 0.4962805526036132 0.4962805526036132 0.4973432518597237 0.4984059511158342 0.4994686503719448 0.5015940488841658 0.5037194473963869 0.5058448459086079 0.5058448459086079 0.5026567481402763 0.4930924548352816 0.4803400637619554 0.4654622741764081 0.4495217853347503 0.434643995749203 0.4176408076514346 0.4048884165781084 0.3772582359192349 0.3379383634431456 0.28161530286928804 0.2263549415515409 0.18384697130712008 0.15834218916046758 0.14984059511158346 0.1477151965993624 0.1477151965993624 0.14558979808714134 0.14452709883103082 0.1434643995749203,0.8216436415161176 0.8159759121501948 0.7975557917109458 0.7678002125398512 0.7295430393198725 0.6856181367339709 0.6388593694651079 0.5991852639036486 0.5524264966347857 0.5226709174636911 0.4815798795607511 0.4419057739992915 0.4050655331207935 0.3738930216082183 0.3413035777541622 0.30162947219270275 0.2619553666312433 0.2392844491675522 0.1981934112646121 0.157102373361672 0.11742826780021255 0.08625575628763726 0.07066950053134967 0.06500177116542682 0.06500177116542682 0.0664187035069076 0.06783563584838825 0.07066950053134967 0.07492029755579166 0.07633722989727243,354.19999999998254 374.19999999998254 394.19999999998254 414.19999999998254 434.19999999998254 454.19999999998254 474.19999999998254 494.19999999998254 514.1999999999825 534.1999999999825 554.1999999999825 574.1999999999825 594.1999999999825 614.1999999999825 634.1999999999825 654.1999999999825 674.1999999999825 694.1999999999824 714.1999999999824 734.1999999999824 754.1999999999824 774.1999999999824 794.1999999999824 814.1999999999824 834.1999999999824 854.1999999999824 874.1999999999824 894.1999999999824 914.1999999999823 934.1999999999823
cb_09,24.0,enc_trial,stim,response,Iceland trip,1020.6999999999823,enc_trial,1.0,24.0,t_s_06_2,travel_shared,fold-b,luggage,9.0,competing,close,paired,t_s_06_2.jpg,,travel-b1,Iceland trip,Miami trip,sub-36,1.0,1.0,1.0,1.0,0.5058448459086079 0.5058448459086079 0.5058448459086079 0.5058448459086079 0.5058448459086079 0.5058448459086079 0.5058448459086079 0.5058448459086079 0.5058448459086079 0.5058448459086079 0.5058448459086079 0.5058448459086079 0.5058448459086079 0.5058448459086079 0.5090329436769394 0.5143464399574921 0.5207226354941552 0.5249734325185972 0.5281615302869288 0.5292242295430393 0.5302869287991498 0.5292242295430393 0.5260361317747078 0.5207226354941552 0.5143464399574921 0.5005313496280552 0.4930924548352816 0.4962805526036132 0.5228480340063762 0.5526036131774708 0.5781083953241233 0.5876726886291179 0.5738575982996812 0.5260361317747078 0.4707757704569607 0.3740701381509033 0.2869287991498406 0.2348565356004251 0.2157279489904357 0.2114771519659936 0.20828905419766205 0.19872476089266736 0.1891604675876727 0.17321997874601489 0.16790648246546228 0.16684378320935175 0.16684378320935175 0.1636556854410202 0.15621679064824653 0.15302869287991502 0.15302869287991502,0.8386468296138859 0.8386468296138859 0.8386468296138859 0.8386468296138859 0.8386468296138859 0.8386468296138859 0.8386468296138859 0.8386468296138859 0.8386468296138859 0.8372298972724053 0.8358129649309245 0.8329791002479632 0.8244775061990791 0.8103081827842721 0.7848034006376196 0.7451292950761601 0.6997874601487779 0.6686149486362026 0.6232731137088203 0.5864328728303223 0.5552603613177471 0.5325894438540559 0.5141693234148069 0.4985830676585194 0.4716613531703862 0.42206872121856176 0.379560750974141 0.3072972015586256 0.2279489904357067 0.17268862911795954 0.13301452355650026 0.0961742826780021 0.06500177116542682 0.04658165072617782 0.04091392136025507 0.03808005667729364 0.04091392136025507 0.05224938009210056 0.06358483882394618 0.07066950053134967 0.07492029755579166 0.07917109458023375 0.08058802692171453 0.0848388239461566 0.08767268862911792 0.08767268862911792 0.08908962097059869 0.09050655331207937 0.09475735033652144 0.09759121501948287 0.09900814736096353,0.0 20.0 40.0 60.0 80.0 100.0 120.0 140.0 160.0 180.0 200.0 220.0 240.0 260.0 280.0 300.0 320.0 340.0 360.0 380.0 400.0 420.0 440.0 460.0 480.0 500.0 520.0 540.0 560.0 580.0 600.0 620.0 640.0 660.0 680.0 700.0 720.0 740.0 760.0 780.0 800.0 820.0 840.0 860.0 880.0 900.0 920.0 940.0 960.0 980.0 1000.0
cb_09,25.0,enc_trial,stim,response,Iceland trip,937.0,enc_trial,1.0,25.0,t_s_10_2,travel_shared,fold-c,luggage lock,9.0,competing,far,paired,t_s_10_2.jpg,,travel-b1,Iceland trip,Miami trip,sub-36,1.0,1.0,0.0,1.0,0.51009564293305 0.5069075451647184 0.5015940488841658 0.4952178533475027 0.4867162592986185 0.4803400637619554 0.4771519659936238 0.4760892667375133 0.4792773645058449 0.4835281615302869 0.4909670563230606 0.4984059511158342 0.5069075451647184 0.5132837407013815 0.5175345377258236 0.5175345377258236 0.5154091392136025 0.51009564293305 0.487778958554729 0.4431455897980872 0.3783209351753454 0.3092454835281616 0.2507970244420829 0.20935175345377247 0.1849096705632306 0.1689691817215728 0.15834218916046758 0.14133900106269925 0.13071200850159406 0.1275239107332625 0.1275239107332625 0.12858660998937302 0.13177470775770456,0.8173928444916755 0.8103081827842721 0.7904711300035423 0.7607155508324477 0.722458377612469 0.6771165426850868 0.6261069783917819 0.5821820758058802 0.5340063761955367 0.5 0.4518243003896564 0.41640099185263896 0.3866454126815445 0.3639744952178533 0.34697130712008506 0.33563584838823945 0.3271342543393553 0.3186326602904711 0.3030464045341835 0.2817924194119731 0.2548707049238399 0.222281261069784 0.18827488487424726 0.15851930570315265 0.1372653205809422 0.12026213248317395 0.11034360609280902 0.1004250797024442 0.09475735033652144 0.09475735033652144 0.09475735033652144 0.09475735033652144 0.0961742826780021,291.70000000001164 311.70000000001164 331.70000000001164 351.7000000000116 371.7000000000117 391.7000000000117 411.7000000000117 431.7000000000117 451.7000000000117 471.7000000000117 491.7000000000117 511.7000000000117 531.7000000000116 551.7000000000116 571.7000000000116 591.7000000000116 611.7000000000116 631.7000000000116 651.7000000000116 671.7000000000116 691.7000000000116 711.7000000000116 731.7000000000116 751.7000000000116 771.7000000000116 791.7000000000116 811.7000000000116 831.7000000000116 851.7000000000116 871.7000000000116 891.7000000000116 911.7000000000116 931.7000000000116
cb_09,26.0,enc_trial,stim,response,Iceland trip,1719.8999999761581,enc_trial,1.0,26.0,t_i_04_1,travel_Iceland,fold-c,portable camping stove,9.0,unique,far,paired,t_i_04_1.jpg,Iceland,travel-b1,Iceland trip,Miami trip,sub-36,1.0,1.0,1.0,1.0,0.5292242295430393 0.5292242295430393 0.5292242295430393 0.5292242295430393 0.5292242295430393 0.5281615302869288 0.5260361317747078 0.5249734325185972 0.5239107332624867 0.5239107332624867 0.5228480340063762 0.5228480340063762 0.5228480340063762 0.5228480340063762 0.5217853347502657 0.5207226354941552 0.5185972369819342 0.5175345377258236 0.5143464399574921 0.5111583421891605 0.5069075451647184 0.5037194473963869 0.4973432518597237 0.4899043570669501 0.48565356004250804 0.4835281615302869 0.4824654622741764 0.4824654622741764 0.4824654622741764 0.4824654622741764 0.4824654622741764 0.4824654622741764 0.4835281615302869 0.5026567481402763 0.5249734325185972 0.5632306057385761 0.6068012752391073 0.6599362380446334 0.7268862911795961 0.8023379383634431 0.8629117959617428 0.9011689691817216 0.9107332624867164 0.9117959617428268 0.9128586609989372 0.9128586609989372 0.9128586609989372 0.9128586609989372 0.9117959617428268 0.9117959617428268 0.9107332624867164 0.9086078639744952 0.9043570669500532 0.8841657810839533 0.8342189160467588 0.7704569606801275 0.6238044633368757 0.5111583421891605 0.4282678002125399 0.3889479277364506 0.3517534537725824 0.32624867162592985 0.2996811902231669 0.2678002125398512 0.2444208289054197 0.22316684378320936 0.20191285866099887 0.1849096705632306 0.15515409139213598 0.1275239107332625 0.11583421891604676 0.11477151965993625,0.8003896563939072 0.8003896563939072 0.7989727240524265 0.7933049946865037 0.7833864682961389 0.7663832801983705 0.7422954303931988 0.7125398512221042 0.6799504073680482 0.657279489904357 0.620439249025859 0.5892667375132837 0.5609280906836698 0.5283386468296138 0.5014169323414808 0.4787460148777896 0.4574920297555791 0.4475735033652143 0.43340417995040736 0.4234856535600425 0.4149840595111584 0.4064824654622742 0.3979808714133901 0.3908962097059865 0.3852284803400637 0.3823946156571024 0.3809776833156217 0.379560750974141 0.379560750974141 0.379560750974141 0.379560750974141 0.379560750974141 0.3781438186326603 0.3583067658519305 0.3342189160467588 0.2945448104852993 0.2548707049238399 0.21944739638682254 0.1868579525327666 0.157102373361672 0.13868225292242298 0.13159759121501946 0.13159759121501946 0.13159759121501946 0.1372653205809422 0.14434998228834572 0.15001771165426847 0.1528515763372299 0.15426850867871056 0.15426850867871056 0.15426850867871056 0.15851930570315265 0.16135317038611408 0.1712716967764789 0.18119022316684366 0.18544102019128586 0.18969181721572792 0.18969181721572792 0.18969181721572792 0.18827488487424726 0.1826071555083245 0.175522493800921 0.16560396741055616 0.15568544102019133 0.14718384697130715 0.1372653205809422 0.1301806588735388 0.12309599716613527 0.11459440311725112 0.10892667375132836 0.10609280906836692 0.10609280906836692,263.8999999999942 283.8999999999942 303.8999999999942 323.8999999999942 343.8999999999942 363.8999999999942 383.8999999999942 403.8999999999942 423.8999999999942 443.8999999999942 463.8999999999942 483.8999999999942 503.8999999999942 523.8999999999942 543.8999999999942 563.8999999999943 583.8999999999943 603.8999999999943 623.8999999999943 643.8999999999943 663.8999999999943 683.8999999999943 703.8999999999942 723.8999999999942 743.8999999999942 763.8999999999942 783.8999999999942 803.8999999999942 823.8999999999942 843.8999999999942 863.8999999999942 883.8999999999942 903.8999999999942 923.8999999999942 943.8999999999942 963.8999999999942 983.8999999999942 1003.8999999999942 1023.8999999999942 1043.8999999999942 1063.8999999999942 1083.8999999999942 1103.8999999999942 1123.8999999999942 1143.8999999999942 1163.8999999999942 1183.8999999999942 1203.8999999999942 1223.8999999999942 1243.8999999999942 1263.8999999999942 1283.8999999999942 1303.8999999999942 1323.8999999999942 1343.8999999999942 1363.8999999999942 1383.8999999999942 1403.8999999999942 1423.8999999999942 1443.8999999999942 1463.8999999999942 1483.8999999999942 1503.8999999999942 1523.8999999999942 1543.8999999999942 1563.8999999999942 1583.8999999999942 1603.8999999999942 1623.8999999999942 1643.8999999999942 1663.8999999999942 1683.8999999999942
cb_09,27.0,enc_trial,stim,response,Iceland trip,969.8000000476897,enc_trial,1.0,27.0,t_m_06_1,travel_Miami,fold-c,handheld fan,9.0,unique,far,paired,t_m_06_1.jpg,Miami,travel-b1,Iceland trip,Miami trip,sub-36,0.0,0.0,1.0,1.0,0.5292242295430393 0.5292242295430393 0.5270988310308182 0.5228480340063762 0.5175345377258236 0.5132837407013815 0.5090329436769394 0.5026567481402763 0.4984059511158342 0.4941551540913922 0.4835281615302869 0.4718384697130712 0.4590860786397449 0.4410201912858661 0.4091392136025505 0.3623804463336875 0.3018065887353879 0.26567481402763016 0.21679064824654626 0.1849096705632306 0.17003188097768332 0.15834218916046758 0.1487778958554729 0.14133900106269925 0.1339001062699256 0.13071200850159406,0.7848034006376196 0.7805526036131775 0.7663832801983705 0.740878498051718 0.7040382571732199 0.6615302869287991 0.6105207226354942 0.5524264966347857 0.4971661353170386 0.4560750974140985 0.4078993978037549 0.36964222458377616 0.3384697130712009 0.29737867516826066 0.2477860432164364 0.19961034360609275 0.157102373361672 0.1415161176053843 0.12734679419057734 0.12309599716613527 0.12309599716613527 0.12451292950761605 0.12876372653205814 0.13159759121501946 0.13584838823946155 0.1372653205809422,284.70000000001164 304.70000000001164 324.70000000001164 344.7000000000116 364.7000000000117 384.7000000000117 404.7000000000117 424.7000000000117 444.7000000000117 464.7000000000117 484.7000000000117 504.7000000000117 524.7000000000116 544.7000000000116 564.7000000000116 584.7000000000116 604.7000000000116 624.7000000000116 644.7000000000116 664.7000000000116 684.7000000000116 704.7000000000116 724.7000000000116 744.7000000000116 764.7000000000116 784.7000000000116
cb_09,28.0,enc_trial,stim,response,Iceland trip,875.5000000476721,enc_trial,1.0,28.0,t_i_10_1,travel_Iceland,fold-b,trekking poles,9.0,unique,close,paired,t_i_10_1.jpg,Iceland,travel-b1,Iceland trip,Miami trip,sub-36,1.0,1.0,1.0,1.0,0.5132837407013815 0.512221041445271 0.5090329436769394 0.5069075451647184 0.5047821466524973 0.5026567481402763 0.5005313496280552 0.5005313496280552 0.5026567481402763 0.5026567481402763 0.5026567481402763 0.5015940488841658 0.4973432518597237 0.4867162592986185 0.4686503719447396 0.4442082890541977 0.4187035069075452 0.3985122210414453 0.361317747077577 0.3134962805526036 0.2539851222104145 0.179596174282678 0.12008501594048886 0.09032943676939426 0.0871413390010627 0.0871413390010627 0.08820403825717323 0.08926673751328375,0.8074743181013107 0.8018065887353879 0.7876372653205809 0.7678002125398512 0.7352107686857953 0.6912858660998937 0.6360255047821466 0.5651788877081119 0.4971661353170386 0.4560750974140985 0.4121501948281969 0.3767268862911796 0.3498051718030464 0.324300389656394 0.3044633368756642 0.28746014877789583 0.27612469004605034 0.2690400283386468 0.2548707049238399 0.2350336521431101 0.19677647892313144 0.14434998228834572 0.1188452001416932 0.11459440311725112 0.11459440311725112 0.11459440311725112 0.11459440311725112 0.11459440311725112,326.29999999998836 346.2999999999884 366.2999999999884 386.2999999999884 406.2999999999884 426.2999999999884 446.2999999999884 466.2999999999884 486.2999999999884 506.2999999999884 526.2999999999884 546.2999999999884 566.2999999999884 586.2999999999884 606.2999999999884 626.2999999999884 646.2999999999884 666.2999999999884 686.2999999999884 706.2999999999884 726.2999999999884 746.2999999999884 766.2999999999884 786.2999999999884 806.2999999999884 826.2999999999884 846.2999999999884 866.2999999999884
cb_09,29.0,enc_trial,stim,response,Miami trip,905.500000023836,enc_trial,1.0,29.0,t_s_21_1,travel_shared,fold-b,umbrella,9.0,competing,close,paired,t_s_21_1.jpg,,travel-b1,Iceland trip,Miami trip,sub-36,1.0,1.0,1.0,0.0,0.512221041445271 0.5111583421891605 0.5111583421891605 0.51009564293305 0.51009564293305 0.5079702444208289 0.5069075451647184 0.5037194473963869 0.4994686503719448 0.4973432518597237 0.4920297555791711 0.48565356004250804 0.4729011689691817 0.4558979808714134 0.43783209351753455 0.4261424017003188 0.4272051009564293 0.4442082890541977 0.5217853347502657 0.638682252922423 0.7321997874601488 0.7800212539851222 0.7959617428267801 0.7991498405951116 0.8044633368756642 0.8140276301806588 0.8225292242295429 0.8310308182784272 0.8352816153028693 0.8374070138150903 0.8395324123273114 0.8405951115834219,0.8173928444916755 0.8159759121501948 0.8117251151257527 0.8046404534183493 0.7918880623450231 0.7706340772228126 0.7380446333687567 0.6955366631243358 0.6516117605384343 0.6190223166843783 0.5680127523910734 0.4971661353170386 0.41640099185263896 0.34413744243712363 0.27895855472901165 0.2279489904357067 0.1840240878498052 0.15001771165426847 0.09900814736096353 0.07066950053134967 0.06783563584838825 0.07633722989727243 0.08625575628763726 0.09900814736096353 0.12026213248317395 0.1415161176053843 0.15143464399574924 0.1641870350690755 0.16985476443499825 0.17268862911795954 0.17410556145944034 0.17410556145944034,270.8999999999942 290.8999999999942 310.8999999999942 330.8999999999942 350.8999999999942 370.8999999999942 390.8999999999942 410.8999999999942 430.8999999999942 450.8999999999942 470.8999999999942 490.8999999999942 510.8999999999942 530.8999999999942 550.8999999999942 570.8999999999943 590.8999999999943 610.8999999999943 630.8999999999943 650.8999999999943 670.8999999999943 690.8999999999942 710.8999999999942 730.8999999999942 750.8999999999942 770.8999999999942 790.8999999999942 810.8999999999942 830.8999999999942 850.8999999999942 870.8999999999942 890.8999999999942
cb_09,30.0,enc_trial,stim,response,Miami trip,1370.100000071514,enc_trial,1.0,30.0,t_s_05_1,travel_shared,fold-a-single,neck pillow,9.0,competing,,single,t_s_05_1.jpg,,travel-b1,Iceland trip,Miami trip,sub-36,1.0,,1.0,,0.5281615302869288 0.5270988310308182 0.5249734325185972 0.5217853347502657 0.5185972369819342 0.5132837407013815 0.5090329436769394 0.5058448459086079 0.5058448459086079 0.5069075451647184 0.5079702444208289 0.5069075451647184 0.5005313496280552 0.4909670563230606 0.4803400637619554 0.4675876726886291 0.4516471838469713 0.43889479277364507 0.4133900106269925 0.3804463336875664 0.3475026567481403 0.3166843783209352 0.28480340063761955 0.2465462274176408 0.20085015940488848 0.16046758767268862 0.13708820403825714 0.11902231668437832 0.11689691817215728 0.11689691817215728 0.1179596174282678 0.12858660998937302 0.1647183846971307 0.25823591923485656 0.3517534537725824 0.5090329436769394 0.6599362380446334 0.7768331562167906 0.8289054197662061 0.8363443145589798 0.8363443145589798 0.8352816153028693 0.8342189160467588 0.8310308182784272 0.8150903294367694 0.7715196599362381 0.691817215727949 0.6036131774707758 0.5324123273113709 0.5015940488841658 0.4973432518597237 0.4973432518597237 0.4994686503719448 0.5270988310308182 0.6163655685441021 0.7396386822529224 0.8320935175345378 0.8660998937300743 0.8671625929861849,0.8386468296138859 0.8343960325894438 0.8202267091746369 0.7961388593694652 0.7607155508324477 0.7167906482465463 0.6686149486362026 0.6190223166843783 0.5722635494155154 0.5354233085370174 0.4815798795607511 0.4376549769748495 0.4050655331207935 0.3781438186326603 0.3583067658519305 0.3370527807297201 0.3129649309245484 0.2931278781438187 0.259121501948282 0.2321997874601488 0.2137796670208998 0.19961034360609275 0.1868579525327666 0.1712716967764789 0.157102373361672 0.14718384697130715 0.14293304994686507 0.1372653205809422 0.13584838823946155 0.13584838823946155 0.1344314558979809 0.12876372653205814 0.1188452001416932 0.10609280906836692 0.10184201204392496 0.10184201204392496 0.10892667375132836 0.11742826780021255 0.12167906482465465 0.12309599716613527 0.12309599716613527 0.12451292950761605 0.12451292950761605 0.1259298618490967 0.12876372653205814 0.1301806588735388 0.1301806588735388 0.1301806588735388 0.13159759121501946 0.1344314558979809 0.13584838823946155 0.13584838823946155 0.13584838823946155 0.14293304994686507 0.15993623804463342 0.17268862911795954 0.18119022316684366 0.1840240878498052 0.1840240878498052,167.0 187.0 207.0 227.0 247.0 267.0 287.0 307.0 327.0 347.0 367.0 387.0 407.0 427.0 447.0 467.0 487.0 507.0 527.0 547.0 567.0 587.0 607.0 627.0 647.0 667.0 687.0 707.0 727.0 747.0 767.0 787.0 807.0 827.0 847.0 867.0 887.0 907.0 927.0 947.0 967.0 987.0 1007.0 1027.0 1047.0 1067.0 1087.0 1107.0 1127.0 1147.0 1167.0 1187.0 1207.0 1227.0 1247.0 1267.0 1287.0 1307.0 1327.0
cb_09,31.0,enc_trial,stim,response,Iceland trip,732.8000000715256,enc_trial,1.0,31.0,t_s_23_2,travel_shared,fold-c,ball cap,9.0,competing,far,paired,t_s_23_2.jpg,,travel-b1,Iceland trip,Miami trip,sub-36,1.0,1.0,0.0,1.0,0.4845908607863975 0.4845908607863975 0.4845908607863975 0.4845908607863975 0.4845908607863975 0.4845908607863975 0.4835281615302869 0.4814027630180659 0.4803400637619554 0.4782146652497343 0.4718384697130712 0.4665249734325186 0.463336875664187 0.4548352816153029 0.4314558979808714 0.3804463336875664 0.3028692879914984 0.2476089266737513 0.18597236981934112 0.16684378320935175 0.16578108395324126 0.16790648246546228 0.17215727948990436 0.17321997874601489 0.1742826780021254,0.7848034006376196 0.7833864682961389 0.7805526036131775 0.7791356712716968 0.7763018065887354 0.7720510095642933 0.7635494155154091 0.7493800921006022 0.7295430393198725 0.7068721218561813 0.6544456252213957 0.5906836698547644 0.5070846617074034 0.39939780375487066 0.27187389302160825 0.16985476443499825 0.13159759121501946 0.12734679419057734 0.13159759121501946 0.14009918526390364 0.1415161176053843 0.1415161176053843 0.14009918526390364 0.14009918526390364 0.14009918526390364,173.6000000000058 193.6000000000058 213.6000000000058 233.6000000000058 253.6000000000058 273.6000000000058 293.6000000000058 313.6000000000058 333.6000000000058 353.6000000000058 373.6000000000058 393.6000000000058 413.6000000000058 433.6000000000058 453.6000000000058 473.6000000000058 493.6000000000058 513.6000000000058 533.6000000000058 553.6000000000058 573.6000000000057 593.6000000000057 613.6000000000057 633.6000000000057 653.6000000000057
cb_09,32.0,enc_trial,stim,response,Miami trip,924.8000000238536,enc_trial,1.0,32.0,t_m_03_2,travel_Miami,fold-c,wetsuit,9.0,unique,far,paired,t_m_03_2.jpg,Miami,travel-b1,Iceland trip,Miami trip,sub-36,1.0,1.0,1.0,1.0,0.5090329436769394 0.5079702444208289 0.5047821466524973 0.5015940488841658 0.5037194473963869 0.5185972369819342 0.5600425079702445 0.5961742826780021 0.6089266737513284 0.6099893730074389 0.6099893730074389 0.6099893730074389 0.6089266737513284 0.6057385759829969 0.6014877789585548 0.5972369819341127 0.5972369819341127 0.5972369819341127 0.5972369819341127 0.5961742826780021 0.5961742826780021 0.5982996811902231 0.6163655685441021 0.6556854410201913 0.7077577045696068 0.7662061636556854 0.7980871413390009 0.8235919234856536 0.8374070138150903 0.8448459086078641 0.8459086078639745 0.842720510095643 0.842720510095643 0.8437832093517534 0.8480340063761955 0.8544102019128587 0.8618490967056323 0.8703506907545164 0.8746014877789585 0.8777895855472901,0.7904711300035423 0.7833864682961389 0.7635494155154091 0.722458377612469 0.6459440311725115 0.5439249025859015 0.42206872121856176 0.34272051009564297 0.3115479985830677 0.3087141339001063 0.3087141339001063 0.3087141339001063 0.30162947219270275 0.2917109458023379 0.2888770811193766 0.2888770811193766 0.2888770811193766 0.2888770811193766 0.2888770811193766 0.2832093517534537 0.26478923131420473 0.2364505844845909 0.18119022316684366 0.1188452001416932 0.07492029755579166 0.06500177116542682 0.07633722989727243 0.10184201204392496 0.1301806588735388 0.16135317038611408 0.1868579525327666 0.1981934112646121 0.1981934112646121 0.1868579525327666 0.175522493800921 0.16985476443499825 0.16560396741055616 0.16135317038611408 0.15993623804463342 0.16135317038611408,138.80000000001746 158.80000000001746 178.80000000001746 198.80000000001743 218.80000000001743 238.80000000001743 258.8000000000174 278.8000000000174 298.8000000000174 318.8000000000174 338.8000000000174 358.80000000001746 378.80000000001746 398.80000000001746 418.80000000001746 438.80000000001746 458.80000000001746 478.80000000001746 498.80000000001746 518.8000000000175 538.8000000000175 558.8000000000175 578.8000000000175 598.8000000000175 618.8000000000175 638.8000000000175 658.8000000000175 678.8000000000175 698.8000000000176 718.8000000000176 738.8000000000176 758.8000000000176 778.8000000000176 798.8000000000176 818.8000000000176 838.8000000000176 858.8000000000176 878.8000000000176 898.8000000000176 918.8000000000177
cb_09,33.0,enc_trial,stim,response,Iceland trip,1073.1999999761465,enc_trial,1.0,33.0,t_s_21_2,travel_shared,fold-b,umbrella,9.0,competing,close,paired,t_s_21_2.jpg,,travel-b1,Iceland trip,Miami trip,sub-36,1.0,1.0,1.0,0.0,0.5239107332624867 0.5430393198724761 0.5674814027630181 0.5781083953241233 0.5759829968119022 0.565356004250797 0.5600425079702445 0.5600425079702445 0.5600425079702445 0.5600425079702445 0.5600425079702445 0.5600425079702445 0.5600425079702445 0.5600425079702445 0.5600425079702445 0.5600425079702445 0.5600425079702445 0.5600425079702445 0.5600425079702445 0.5600425079702445 0.5600425079702445 0.5749202975557917 0.5908607863974495 0.6014877789585548 0.5908607863974495 0.5526036131774708 0.5175345377258236 0.4473963868225293 0.3751328374070138 0.3145589798087141 0.27417640807651433 0.2476089266737513 0.2199787460148778 0.19128586609989373 0.17534537725823593 0.15515409139213598 0.14984059511158346 0.14984059511158346 0.1487778958554729 0.14558979808714134 0.14240170031880978 0.14027630180658873 0.14027630180658873 0.14027630180658873 0.14027630180658873 0.1392136025504782 0.1392136025504782 0.1392136025504782 0.1392136025504782 0.1392136025504782 0.1392136025504782,0.6742826780021254 0.6091037902940135 0.5170031880977684 0.4433227063407722 0.3724760892667375 0.3186326602904711 0.3030464045341835 0.3030464045341835 0.3030464045341835 0.3030464045341835 0.3030464045341835 0.3030464045341835 0.3030464045341835 0.3030464045341835 0.3030464045341835 0.3030464045341835 0.3030464045341835 0.3030464045341835 0.3030464045341835 0.3030464045341835 0.3030464045341835 0.3044633368756642 0.30588026921714484 0.2959617428267801 0.2633722989727241 0.2109458023379384 0.17693942614240166 0.1259298618490967 0.07775416223875309 0.04091392136025507 0.022493800921006057 0.01540913921360254 0.011158342189160451 0.005490612823237706 0.004073680481757047 0.004073680481757047 0.005490612823237706 0.012575274530641112 0.02391073326248672 0.039496989018774416 0.05650017711654265 0.06925256818986891 0.07633722989727243 0.08058802692171453 0.08342189160467584 0.0848388239461566 0.0848388239461566 0.0848388239461566 0.0848388239461566 0.0848388239461566 0.08625575628763726,0.0 20.0 40.0 60.0 80.0 100.0 120.0 140.0 160.0 180.0 200.0 220.0 240.0 260.0 280.0 300.0 320.0 340.0 360.0 380.0 400.0 420.0 440.0 460.0 480.0 500.0 520.0 540.0 560.0 580.0 600.0 620.0 640.0 660.0 680.0 700.0 720.0 740.0 760.0 780.0 800.0 820.0 840.0 860.0 880.0 900.0 920.0 940.0 960.0 980.0 1000.0
cb_09,34.0,enc_trial,stim,response,Miami trip,1308.500000047672,enc_trial,1.0,34.0,t_s_04_2,travel_shared,fold-c,instant camera,9.0,competing,far,paired,t_s_04_2.jpg,,travel-b1,Iceland trip,Miami trip,sub-36,1.0,1.0,1.0,1.0,0.4909670563230606 0.4909670563230606 0.4888416578108396 0.487778958554729 0.48565356004250804 0.4835281615302869 0.4803400637619554 0.4782146652497343 0.4739638682252922 0.4718384697130712 0.4665249734325186 0.4622741764080765 0.4590860786397449 0.4558979808714134 0.4527098831030818 0.44845908607863977 0.4442082890541977 0.44208289054197664 0.4325185972369819 0.4048884165781084 0.35069075451647186 0.29861849096705634 0.27417640807651433 0.26992561105207225 0.26992561105207225 0.2763018065887354 0.2964930924548353 0.3538788522848034 0.4580233793836344 0.6004250797024442 0.7247608926673751 0.8161530286928799 0.869287991498406 0.8969181721572795 0.9107332624867164 0.926673751328374 0.9362380446333688 0.9383634431455898 0.9383634431455898 0.9394261424017004 0.9404888416578108 0.9404888416578108 0.9404888416578108 0.9404888416578108 0.9404888416578108 0.9373007438894791 0.9319872476089268 0.9298618490967056 0.9298618490967056 0.9298618490967056 0.9298618490967056 0.9298618490967056 0.9287991498405952 0.9277364505844846 0.926673751328374 0.926673751328374 0.926673751328374 0.926673751328374,0.8258944385405597 0.8258944385405597 0.8230605738575982 0.8173928444916755 0.8103081827842721 0.7989727240524265 0.7833864682961389 0.7550478214665249 0.7167906482465463 0.6898689337584129 0.6487778958554729 0.6119376549769748 0.5765143464399575 0.5495926319518243 0.5311725115125753 0.5113354587318455 0.4858306765851931 0.4574920297555791 0.3781438186326603 0.2931278781438187 0.2166135317038611 0.16702089975203682 0.14718384697130715 0.14293304994686507 0.1415161176053843 0.1372653205809422 0.12309599716613527 0.10325894438540564 0.08908962097059869 0.08200495926319518 0.08342189160467584 0.09192348565356 0.10184201204392496 0.11034360609280902 0.11601133545873188 0.12451292950761605 0.1301806588735388 0.13159759121501946 0.13159759121501946 0.13159759121501946 0.13301452355650026 0.13301452355650026 0.13301452355650026 0.13301452355650026 0.13301452355650026 0.13301452355650026 0.13301452355650026 0.13301452355650026 0.13301452355650026 0.13301452355650026 0.13301452355650026 0.13301452355650026 0.1344314558979809 0.1344314558979809 0.13584838823946155 0.13584838823946155 0.13584838823946155 0.1372653205809422,138.89999999999418 158.89999999999418 178.8999999999942 198.89999999999415 218.89999999999415 238.89999999999415 258.8999999999942 278.8999999999942 298.8999999999942 318.8999999999942 338.8999999999942 358.8999999999942 378.8999999999942 398.8999999999942 418.8999999999942 438.8999999999942 458.8999999999942 478.8999999999942 498.8999999999942 518.8999999999942 538.8999999999942 558.8999999999942 578.8999999999943 598.8999999999943 618.8999999999943 638.8999999999943 658.8999999999943 678.8999999999943 698.8999999999942 718.8999999999942 738.8999999999942 758.8999999999942 778.8999999999942 798.8999999999942 818.8999999999942 838.8999999999942 858.8999999999942 878.8999999999942 898.8999999999942 918.8999999999942 938.8999999999942 958.8999999999942 978.8999999999942 998.8999999999942 1018.8999999999942 1038.8999999999942 1058.8999999999942 1078.8999999999942 1098.8999999999942 1118.8999999999942 1138.8999999999942 1158.8999999999942 1178.8999999999942 1198.8999999999942 1218.8999999999942 1238.8999999999942 1258.8999999999942 1278.8999999999942
cb_09,35.0,enc_trial,stim,response,Iceland trip,898.9000000476954,enc_trial,1.0,35.0,t_i_10_2,travel_Iceland,fold-b,trekking poles,9.0,unique,close,paired,t_i_10_2.jpg,Iceland,travel-b1,Iceland trip,Miami trip,sub-36,1.0,1.0,1.0,1.0,0.4994686503719448 0.4984059511158342 0.4984059511158342 0.4973432518597237 0.4962805526036132 0.4952178533475027 0.4952178533475027 0.4952178533475027 0.4952178533475027 0.4952178533475027 0.4930924548352816 0.487778958554729 0.4782146652497343 0.4697130712008502 0.4643995749202976 0.46121147715196603 0.4601487778958554 0.4590860786397449 0.4590860786397449 0.4590860786397449 0.4590860786397449 0.4590860786397449 0.4590860786397449 0.4590860786397449 0.4590860786397449 0.4590860786397449 0.4580233793836344 0.4558979808714134 0.4537725823591923 0.4505844845908608 0.44208289054197664 0.4282678002125399 0.3995749202975558 0.35494155154091395 0.3134962805526036 0.2592986184909671 0.22316684378320936 0.20403825717322 0.19234856535600425 0.17747077577045695 0.15515409139213598 0.13602550478214664 0.1275239107332625 0.12433581296493093 0.12433581296493093 0.12433581296493093,0.8443145589798087 0.8457314913212894 0.8485653560042508 0.8528161530286928 0.8556500177116543 0.8584838823946157 0.8599008147360964 0.8599008147360964 0.8599008147360964 0.8584838823946157 0.8457314913212894 0.8173928444916755 0.7720510095642933 0.6969535954658166 0.630357775416224 0.569429684732554 0.5311725115125753 0.5170031880977684 0.5070846617074034 0.5056677293659229 0.5056677293659229 0.5056677293659229 0.5056677293659229 0.5056677293659229 0.5056677293659229 0.5056677293659229 0.5056677293659229 0.5056677293659229 0.5056677293659229 0.4957492029755579 0.4518243003896564 0.3724760892667375 0.27612469004605034 0.1981934112646121 0.157102373361672 0.12309599716613527 0.10892667375132836 0.1075097414098477 0.1117605384342898 0.11742826780021255 0.1259298618490967 0.1372653205809422 0.14576691462982638 0.15143464399574924 0.1528515763372299 0.15568544102019133,6.800000000017463 26.800000000017466 46.80000000001746 66.80000000001746 86.80000000001745 106.80000000001745 126.80000000001745 146.80000000001746 166.80000000001746 186.80000000001743 206.80000000001743 226.80000000001743 246.80000000001743 266.8000000000174 286.8000000000174 306.8000000000174 326.8000000000174 346.80000000001746 366.80000000001746 386.80000000001746 406.80000000001746 426.80000000001746 446.80000000001746 466.80000000001746 486.80000000001746 506.80000000001746 526.8000000000175 546.8000000000175 566.8000000000175 586.8000000000175 606.8000000000175 626.8000000000175 646.8000000000175 666.8000000000175 686.8000000000175 706.8000000000176 726.8000000000176 746.8000000000176 766.8000000000176 786.8000000000176 806.8000000000176 826.8000000000176 846.8000000000176 866.8000000000176 886.8000000000176 906.8000000000177
cb_09,36.0,enc_trial,stim,response,Iceland trip,1043.0,enc_trial,1.0,36.0,t_s_24_1,travel_shared,fold-c,ear plugs,9.0,competing,far,paired,t_s_24_1.jpg,,travel-b1,Iceland trip,Miami trip,sub-36,1.0,1.0,1.0,1.0,0.51009564293305 0.5090329436769394 0.5079702444208289 0.5058448459086079 0.5058448459086079 0.5058448459086079 0.5185972369819342 0.5557917109458024 0.6333687566418703 0.6854410201912858 0.7598299681190224 0.8129649309245484 0.8331562167906482 0.8310308182784272 0.8012752391073327 0.7343251859723698 0.6418703506907545 0.5685441020191286 0.4516471838469713 0.3634431455897981 0.31030818278427197 0.28480340063761955 0.2731137088204038 0.25717321997874604 0.23060573857598304 0.1944739638682253 0.1742826780021254 0.1647183846971307,0.8358129649309245 0.8329791002479632 0.8273113708820403 0.8159759121501948 0.7918880623450231 0.7550478214665249 0.6969535954658166 0.5864328728303223 0.4263195182430039 0.3342189160467588 0.22511512575274528 0.15851930570315265 0.1301806588735388 0.12309599716613527 0.12026213248317395 0.12026213248317395 0.12026213248317395 0.1188452001416932 0.1188452001416932 0.12026213248317395 0.12026213248317395 0.12026213248317395 0.12026213248317395 0.12026213248317395 0.11742826780021255 0.11317747077577045 0.10892667375132836 0.10467587672688627,437.6000000000058 457.6000000000058 477.6000000000058 497.6000000000058 517.6000000000058 537.6000000000058 557.6000000000058 577.6000000000057 597.6000000000057 617.6000000000057 637.6000000000057 657.6000000000057 677.6000000000057 697.6000000000058 717.6000000000058 737.6000000000058 757.6000000000058 777.6000000000058 797.6000000000058 817.6000000000058 837.6000000000058 857.6000000000058 877.6000000000058 897.6000000000058 917.6000000000058 937.6000000000058 957.6000000000058 977.6000000000058
cb_09,37.0,enc_trial,stim,response,Iceland trip,1035.4000000476954,enc_trial,1.0,37.0,t_i_06_1,travel_Iceland,fold-d-single,knit hat,9.0,unique,,single,t_i_06_1.jpg,Iceland,travel-b1,Iceland trip,Miami trip,sub-36,1.0,,1.0,,0.4984059511158342 0.4984059511158342 0.4984059511158342 0.4984059511158342 0.4984059511158342 0.4984059511158342 0.4984059511158342 0.4984059511158342 0.4962805526036132 0.4962805526036132 0.4952178533475027 0.4952178533475027 0.4952178533475027 0.4941551540913922 0.5037194473963869 0.5164718384697131 0.5239107332624867 0.5270988310308182 0.5345377258235919 0.5515409139213603 0.5866099893730075 0.6333687566418703 0.6790648246546227 0.6950053134962806 0.69394261424017 0.6716259298618491 0.6397449521785334 0.5717321997874601 0.4771519659936238 0.38257173219978746 0.31030818278427197 0.2667375132837407 0.2422954303931988 0.22316684378320936 0.206163655685441 0.17747077577045695 0.14240170031880978 0.10626992561105207 0.09139213602550478 0.09139213602550478 0.09139213602550478,0.8103081827842721 0.8103081827842721 0.8074743181013107 0.80605738575983 0.80605738575983 0.80605738575983 0.80605738575983 0.8046404534183493 0.7975557917109458 0.7933049946865037 0.7833864682961389 0.7663832801983705 0.7352107686857953 0.6799504073680482 0.5892667375132837 0.5056677293659229 0.4348211122918879 0.3923131420474673 0.33988664541268154 0.2917109458023379 0.2463691108749557 0.21236273467941905 0.18969181721572792 0.1826071555083245 0.18119022316684366 0.17268862911795954 0.16135317038611408 0.14434998228834572 0.12734679419057734 0.11459440311725112 0.1075097414098477 0.10467587672688627 0.10325894438540564 0.1004250797024442 0.09759121501948287 0.09334041799504078 0.09334041799504078 0.09334041799504078 0.09334041799504078 0.09334041799504078 0.09475735033652144,229.10000000000585 249.10000000000585 269.1000000000058 289.1000000000058 309.1000000000058 329.1000000000058 349.1000000000058 369.1000000000058 389.1000000000058 409.1000000000058 429.1000000000058 449.1000000000058 469.1000000000058 489.1000000000058 509.1000000000058 529.1000000000058 549.1000000000058 569.1000000000057 589.1000000000057 609.1000000000057 629.1000000000057 649.1000000000057 669.1000000000057 689.1000000000058 709.1000000000058 729.1000000000058 749.1000000000058 769.1000000000058 789.1000000000058 809.1000000000058 829.1000000000058 849.1000000000058 869.1000000000058 889.1000000000058 909.1000000000058 929.1000000000058 949.1000000000058 969.1000000000058 989.1000000000058 1009.1000000000058 1029.1000000000058
cb_09,38.0,enc_trial,stim,response,Iceland trip,750.8999999761581,enc_trial,1.0,38.0,t_i_14_2,travel_Iceland,fold-c,snow pants,9.0,unique,far,paired,t_i_14_2.jpg,Iceland,travel-b1,Iceland trip,Miami trip,sub-36,1.0,1.0,1.0,1.0,0.5037194473963869 0.5037194473963869 0.5026567481402763 0.5005313496280552 0.4994686503719448 0.4962805526036132 0.4899043570669501 0.4803400637619554 0.463336875664187 0.4516471838469713 0.4431455897980872 0.4410201912858661 0.44208289054197664 0.4410201912858661 0.434643995749203 0.4197662061636557 0.39638682252922425 0.3708820403825717 0.32093517534537724 0.25717321997874604 0.20085015940488848 0.16578108395324126 0.15196599362380447 0.1477151965993624 0.14452709883103082 0.1434643995749203,0.8244775061990791 0.8216436415161176 0.8117251151257527 0.7947219270279844 0.7692171448813319 0.7337938363443146 0.6870350690754516 0.6374424371236274 0.5821820758058802 0.5439249025859015 0.4900814736096352 0.4249025859015232 0.361140630534892 0.3257173219978746 0.3030464045341835 0.2817924194119731 0.2619553666312433 0.2477860432164364 0.2307828551186681 0.21519659936238045 0.20386114063053484 0.1981934112646121 0.19677647892313144 0.1953595465816508 0.1953595465816508 0.19394261424017,236.10000000000585 256.1000000000058 276.1000000000058 296.10000000000576 316.1000000000057 336.1000000000057 356.1000000000057 376.1000000000057 396.10000000000565 416.10000000000565 436.10000000000565 456.10000000000565 476.1000000000055 496.1000000000055 516.1000000000055 536.1000000000054 556.1000000000054 576.1000000000054 596.1000000000054 616.1000000000053 636.1000000000053 656.1000000000053 676.1000000000053 696.1000000000051 716.1000000000051 736.1000000000051
cb_09,39.0,enc_trial,stim,response,Iceland trip,1374.6000000238419,enc_trial,1.0,39.0,t_i_04_2,travel_Iceland,fold-c,portable camping stove,9.0,unique,far,paired,t_i_04_2.jpg,Iceland,travel-b1,Iceland trip,Miami trip,sub-36,1.0,1.0,1.0,1.0,0.5037194473963869 0.5037194473963869 0.5037194473963869 0.5047821466524973 0.5058448459086079 0.5069075451647184 0.5069075451647184 0.5069075451647184 0.5069075451647184 0.5069075451647184 0.5069075451647184 0.5047821466524973 0.5026567481402763 0.4994686503719448 0.4973432518597237 0.4973432518597237 0.4994686503719448 0.4994686503719448 0.5015940488841658 0.5037194473963869 0.5047821466524973 0.5069075451647184 0.5090329436769394 0.51009564293305 0.5132837407013815 0.5239107332624867 0.5334750265674814 0.5557917109458024 0.5717321997874601 0.5749202975557917 0.5696068012752391 0.5504782146652497 0.5185972369819342 0.4792773645058449 0.4569606801275239 0.4357066950053135 0.4155154091392136 0.3793836344314559 0.3251859723698193 0.26992561105207225 0.22316684378320936 0.1827842720510096 0.15090329436769395 0.10520722635494156 0.06801275239107332 0.05844845908607864 0.05844845908607864 0.05844845908607864 0.05844845908607864 0.05844845908607864 0.05844845908607864 0.05844845908607864 0.05844845908607864 0.05844845908607864 0.05844845908607864 0.05951115834218916 0.06163655685441021 0.06163655685441021 0.06163655685441021 0.06163655685441021 0.06269925611052073 0.0669500531349628 0.07332624867162592 0.07863974495217853 0.08289054197662063 0.08607863974495218 0.0871413390010627,0.8329791002479632 0.8287283032235211 0.8188097768331563 0.8046404534183493 0.7904711300035423 0.7763018065887354 0.7649663478568898 0.7550478214665249 0.7465462274176409 0.7394615657102374 0.7267091746369111 0.7111229188806234 0.6870350690754516 0.6558625575628764 0.6105207226354942 0.5637619553666313 0.5269217144881332 0.5042507970244421 0.4744952178533475 0.4461565710237336 0.4078993978037549 0.3597236981934112 0.3214665249734325 0.2888770811193766 0.25628763726532056 0.222281261069784 0.20386114063053484 0.18119022316684366 0.16702089975203682 0.15851930570315265 0.14576691462982638 0.1301806588735388 0.11742826780021255 0.11034360609280902 0.10892667375132836 0.11034360609280902 0.11742826780021255 0.12876372653205814 0.1372653205809422 0.13868225292242298 0.13868225292242298 0.13584838823946155 0.13159759121501946 0.12167906482465465 0.1117605384342898 0.11034360609280902 0.11034360609280902 0.11034360609280902 0.11034360609280902 0.11034360609280902 0.11034360609280902 0.11034360609280902 0.11034360609280902 0.11034360609280902 0.10892667375132836 0.1075097414098477 0.1075097414098477 0.1075097414098477 0.10609280906836692 0.10609280906836692 0.10609280906836692 0.10609280906836692 0.10892667375132836 0.1117605384342898 0.11459440311725112 0.11601133545873188 0.11601133545873188,0.0 20.0 40.0 60.0 80.0 100.0 120.0 140.0 160.0 180.0 200.0 220.0 240.0 260.0 280.0 300.0 320.0 340.0 360.0 380.0 400.0 420.0 440.0 460.0 480.0 500.0 520.0 540.0 560.0 580.0 600.0 620.0 640.0 660.0 680.0 700.0 720.0 740.0 760.0 780.0 800.0 820.0 840.0 860.0 880.0 900.0 920.0 940.0 960.0 980.0 1000.0 1020.0 1040.0 1060.0 1080.0 1100.0 1120.0 1140.0 1160.0 1180.0 1200.0 1220.0 1240.0 1260.0 1280.0 1300.0 1320.0
