Current Spreadsheet,Trial Number,Display,Screen,Response Type,Response,Reaction Time,display,block,block_trial,stimulus_id,expected_goal,fold,stimulus_name,c_group,condition,within_block_dist,paired_status,stimulus_path,expected_location,block_split,respStim_1,respStim_2,sub_label,acc,both_enc_acc,assoc_stim1_acc,assoc_stim2_acc,x_pos,y_pos,time_trajectories
cb_03,1.0,enc_trial,stim,response,Iceland trip,1550.6000000000058,enc_trial,1.0,1.0,t_i_20_1,travel_Iceland,fold-b-single,lantern,3.0,unique,,single,t_i_20_1.jpg,Iceland,travel-b1,Iceland trip,Miami trip,sub-53,1.0,,1.0,,0.5414012738853503 0.5294585987261147 0.5079617834394905 0.4872611464968153 0.4753184713375796 0.4745222929936306 0.4745222929936306 0.4745222929936306 0.4745222929936306 0.4745222929936306 0.4745222929936306 0.4745222929936306 0.4745222929936306 0.4745222929936306 0.4745222929936306 0.4745222929936306 0.4745222929936306 0.4745222929936306 0.4745222929936306 0.4745222929936306 0.4745222929936306 0.4745222929936306 0.4745222929936306 0.4745222929936306 0.4745222929936306 0.4745222929936306 0.4745222929936306 0.4745222929936306 0.4745222929936306 0.4745222929936306 0.4745222929936306 0.4745222929936306 0.4745222929936306 0.4745222929936306 0.4745222929936306 0.4745222929936306 0.4745222929936306 0.4745222929936306 0.4745222929936306 0.4745222929936306 0.4745222929936306 0.4689490445859872 0.4585987261146497 0.4410828025477707 0.4275477707006369 0.4339171974522293 0.5031847133757962 0.5421974522292994 0.5764331210191083 0.5851910828025477 0.5835987261146497 0.5796178343949044 0.5764331210191083 0.5668789808917197 0.5533439490445861 0.5414012738853503 0.4745222929936306 0.4363057324840765 0.3957006369426752 0.3503184713375796 0.3089171974522293 0.25796178343949044 0.23248407643312105 0.2070063694267516 0.17197452229299362 0.125 0.0031847133757961785 -0.03343949044585987 -0.04617834394904458 -0.044585987261146494 -0.03184713375796178 0.08996815286624202 0.16003184713375795 0.1847133757961784 0.18710191082802544 0.1863057324840764 0.1839171974522293 0.1823248407643312,0.8588110403397028 0.8545647558386412 0.8545647558386412 0.8535031847133758 0.8524416135881104 0.8524416135881104 0.8524416135881104 0.8524416135881104 0.8524416135881104 0.8524416135881104 0.8524416135881104 0.8524416135881104 0.8524416135881104 0.8524416135881104 0.8524416135881104 0.8524416135881104 0.8524416135881104 0.8524416135881104 0.8524416135881104 0.8524416135881104 0.8524416135881104 0.8524416135881104 0.8524416135881104 0.8524416135881104 0.8524416135881104 0.8524416135881104 0.8524416135881104 0.8524416135881104 0.8524416135881104 0.8524416135881104 0.8524416135881104 0.8524416135881104 0.8524416135881104 0.8524416135881104 0.8524416135881104 0.8524416135881104 0.8524416135881104 0.8524416135881104 0.8524416135881104 0.8524416135881104 0.8524416135881104 0.8524416135881104 0.8439490445859873 0.8163481953290871 0.7717622080679405 0.7070063694267517 0.5796178343949044 0.5286624203821656 0.4851380042462845 0.4639065817409767 0.4554140127388535 0.4394904458598726 0.4267515923566879 0.410828025477707 0.3959660297239915 0.3874734607218684 0.35031847133757965 0.3290870488322718 0.3152866242038217 0.3110403397027601 0.3025477707006369 0.27919320594479835 0.26645435244161364 0.25053078556263275 0.22717622080679398 0.2006369426751592 0.16560509554140124 0.15392781316348192 0.14649681528662414 0.1411889596602972 0.13588110403397025 0.12420382165605093 0.11677282377919318 0.11358811040339699 0.11358811040339699 0.1125265392781316 0.11358811040339699 0.11358811040339699,0.0 20.0 40.0 60.0 80.0 100.0 120.0 140.0 160.0 180.0 200.0 220.0 240.0 260.0 280.0 300.0 320.0 340.0 360.0 380.0 400.0 420.0 440.0 460.0 480.0 500.0 520.0 540.0 560.0 580.0 600.0 620.0 640.0 660.0 680.0 700.0 720.0 740.0 760.0 780.0 800.0 820.0 840.0 860.0 880.0 900.0 920.0 940.0 960.0 980.0 1000.0 1020.0 1040.0 1060.0 1080.0 1100.0 1120.0 1140.0 1160.0 1180.0 1200.0 1220.0 1240.0 1260.0 1280.0 1300.0 1320.0 1340.0 1360.0 1380.0 1400.0 1420.0 1440.0 1460.0 1480.0 1500.0 1520.0 1540.0
cb_03,2.0,enc_trial,stim,response,Iceland trip,1621.3000000238535,enc_trial,1.0,2.0,t_s_24_1,travel_shared,fold-c,ear plugs,3.0,competing,far,paired,t_s_24_1.jpg,,travel-b1,Iceland trip,Miami trip,sub-53,1.0,1.0,0.0,0.0,0.5063694267515924 0.5063694267515924 0.5055732484076433 0.5055732484076433 0.5055732484076433 0.5047770700636943 0.5047770700636943 0.5039808917197452 0.5039808917197452 0.5039808917197452 0.5047770700636943 0.5055732484076433 0.5055732484076433 0.5055732484076433 0.5055732484076433 0.5055732484076433 0.5063694267515924 0.5063694267515924 0.5071656050955414 0.5087579617834395 0.5103503184713376 0.5127388535031847 0.5143312101910829 0.5159235668789809 0.5183121019108279 0.5214968152866242 0.5302547770700637 0.5429936305732485 0.5700636942675159 0.6090764331210191 0.6624203821656051 0.7810509554140127 0.8312101910828026 0.8622611464968153 0.8718152866242038 0.8742038216560509 0.8742038216560509 0.8742038216560509 0.8742038216560509 0.8742038216560509 0.8742038216560509 0.8734076433121019 0.8734076433121019 0.8734076433121019 0.8734076433121019 0.8726114649681529 0.8710191082802548 0.8694267515923567 0.8686305732484076 0.8678343949044586 0.8678343949044586 0.8670382165605095 0.8670382165605095 0.8670382165605095 0.8670382165605095 0.8670382165605095 0.8670382165605095 0.8662420382165605 0.8638535031847133 0.8606687898089171 0.857484076433121 0.8503184713375797 0.8455414012738853 0.8320063694267515 0.803343949044586 0.7539808917197452 0.6202229299363057 0.5382165605095541 0.4450636942675159 0.3527070063694268 0.2786624203821656 0.17436305732484075 0.16162420382165604 0.15764331210191082 0.15684713375796178 0.15684713375796178 0.15684713375796178 0.15605095541401273 0.1536624203821656 0.15047770700636942 0.14570063694267515 0.14331210191082802,0.8343949044585988 0.8333333333333334 0.8312101910828026 0.8290870488322718 0.8259023354564756 0.8205944798301487 0.8174097664543525 0.8131634819532909 0.8099787685774946 0.805732484076433 0.7951167728237791 0.7887473460721868 0.7823779193205944 0.7770700636942676 0.7738853503184713 0.7696390658174097 0.7611464968152866 0.7558386411889597 0.7484076433121019 0.7409766454352442 0.7324840764331211 0.7123142250530785 0.6985138004246285 0.6825902335456475 0.6656050955414012 0.648619957537155 0.6040339702760085 0.564755838641189 0.5 0.4267515923566879 0.3481953290870489 0.2123142250530785 0.17940552016985134 0.1698513800424628 0.1687898089171974 0.1687898089171974 0.1687898089171974 0.1687898089171974 0.1687898089171974 0.1687898089171974 0.1687898089171974 0.1687898089171974 0.1687898089171974 0.1687898089171974 0.1687898089171974 0.16772823779193202 0.16560509554140124 0.16348195329087045 0.16242038216560506 0.16135881104033967 0.16029723991507427 0.15923566878980888 0.15923566878980888 0.1581740976645435 0.1581740976645435 0.1571125265392781 0.15392781316348192 0.15074309978768574 0.14755838641188956 0.1443736730360934 0.14012738853503182 0.13057324840764328 0.1273885350318471 0.12208067940552016 0.1157112526539278 0.11040339702760082 0.1146496815286624 0.12420382165605093 0.13694267515923564 0.14861995753715496 0.15286624203821653 0.1549893842887473 0.15392781316348192 0.15286624203821653 0.15286624203821653 0.15286624203821653 0.15180467091295113 0.15180467091295113 0.14968152866242035 0.14649681528662414 0.143312101910828 0.1411889596602972,0.0 20.0 40.0 60.0 80.0 100.0 120.0 140.0 160.0 180.0 200.0 220.0 240.0 260.0 280.0 300.0 320.0 340.0 360.0 380.0 400.0 420.0 440.0 460.0 480.0 500.0 520.0 540.0 560.0 580.0 600.0 620.0 640.0 660.0 680.0 700.0 720.0 740.0 760.0 780.0 800.0 820.0 840.0 860.0 880.0 900.0 920.0 940.0 960.0 980.0 1000.0 1020.0 1040.0 1060.0 1080.0 1100.0 1120.0 1140.0 1160.0 1180.0 1200.0 1220.0 1240.0 1260.0 1280.0 1300.0 1320.0 1340.0 1360.0 1380.0 1400.0 1420.0 1440.0 1460.0 1480.0 1500.0 1520.0 1540.0 1560.0 1580.0 1600.0 1620.0
cb_03,3.0,enc_trial,stim,response,Miami trip,1853.8999999880907,enc_trial,1.0,3.0,t_s_02_1,travel_shared,fold-b,water bottle,3.0,competing,close,paired,t_s_02_1.jpg,,travel-b1,Iceland trip,Miami trip,sub-53,1.0,1.0,1.0,1.0,0.5031847133757962 0.5031847133757962 0.5031847133757962 0.5031847133757962 0.5039808917197452 0.5047770700636943 0.5047770700636943 0.5047770700636943 0.5055732484076433 0.5055732484076433 0.5087579617834395 0.5103503184713376 0.5135350318471338 0.5175159235668789 0.5222929936305732 0.5366242038216561 0.5469745222929936 0.5549363057324841 0.5716560509554139 0.5923566878980892 0.6385350318471338 0.6664012738853503 0.6871019108280255 0.6966560509554138 0.7022292993630573 0.7101910828025477 0.714968152866242 0.7197452229299363 0.7245222929936306 0.7292993630573248 0.7364649681528662 0.7428343949044586 0.7539808917197452 0.76671974522293 0.7802547770700637 0.7914012738853503 0.7953821656050956 0.7953821656050956 0.7953821656050956 0.7953821656050956 0.7953821656050956 0.7937898089171974 0.7882165605095541 0.7699044585987261 0.7253184713375797 0.5597133757961783 0.4522292993630573 0.3590764331210191 0.2937898089171975 0.2555732484076433 0.2452229299363057 0.2404458598726115 0.23646496815286625 0.2277070063694268 0.21656050955414013 0.2030254777070064 0.17914012738853502 0.1624203821656051 0.14410828025477707 0.13296178343949044 0.12738853503184713 0.12738853503184713 0.1305732484076433 0.13853503184713375 0.15286624203821655 0.18312101910828024 0.35429936305732485 0.4800955414012738 0.5915605095541401 0.6695859872611465 0.7165605095541401 0.7364649681528662 0.7364649681528662 0.7364649681528662 0.7364649681528662 0.7380573248407644 0.7444267515923567 0.7460191082802548 0.7460191082802548 0.7460191082802548 0.7492038216560509 0.7858280254777071 0.8160828025477707 0.8447452229299363 0.8670382165605095 0.8781847133757962 0.8797770700636943,0.8099787685774946 0.8089171974522293 0.8089171974522293 0.8067940552016986 0.8046709129511678 0.8004246284501062 0.7972399150743099 0.7951167728237791 0.7919320594479831 0.7887473460721868 0.7749469214437368 0.7653927813163481 0.7515923566878981 0.7367303609341826 0.7165605095541401 0.6624203821656052 0.6210191082802548 0.5732484076433121 0.494692144373673 0.3959660297239915 0.2261146496815286 0.17303609341825898 0.15180467091295113 0.14755838641188956 0.14649681528662414 0.1443736730360934 0.143312101910828 0.1422505307855626 0.14012738853503182 0.14012738853503182 0.13588110403397025 0.13269639065817407 0.1295116772823779 0.1273885350318471 0.1273885350318471 0.1273885350318471 0.1284501061571125 0.1284501061571125 0.1284501061571125 0.1284501061571125 0.1284501061571125 0.1295116772823779 0.13057324840764328 0.13375796178343946 0.14012738853503182 0.16135881104033967 0.1698513800424628 0.1719745222929936 0.1687898089171974 0.16454352441613584 0.16242038216560506 0.15923566878980888 0.1571125265392781 0.15392781316348192 0.15074309978768574 0.14649681528662414 0.13800424628450106 0.13269639065817407 0.1295116772823779 0.1273885350318471 0.1273885350318471 0.1273885350318471 0.1273885350318471 0.1295116772823779 0.13375796178343946 0.13800424628450106 0.15286624203821653 0.16029723991507427 0.1581740976645435 0.15180467091295113 0.14861995753715496 0.14649681528662414 0.14649681528662414 0.14649681528662414 0.14543524416135878 0.143312101910828 0.1411889596602972 0.1411889596602972 0.1411889596602972 0.1411889596602972 0.14012738853503182 0.13800424628450106 0.13694267515923564 0.13481953290870485 0.13481953290870485 0.13481953290870485 0.13481953290870485,133.60000000000582 153.60000000000582 173.6000000000058 193.60000000000585 213.60000000000585 233.60000000000585 253.60000000000585 273.6000000000058 293.6000000000058 313.6000000000058 333.6000000000058 353.6000000000058 373.6000000000058 393.6000000000058 413.6000000000058 433.6000000000058 453.6000000000058 473.6000000000058 493.6000000000058 513.6000000000058 533.6000000000058 553.6000000000058 573.6000000000057 593.6000000000057 613.6000000000057 633.6000000000057 653.6000000000057 673.6000000000057 693.6000000000058 713.6000000000058 733.6000000000058 753.6000000000058 773.6000000000058 793.6000000000058 813.6000000000058 833.6000000000058 853.6000000000058 873.6000000000058 893.6000000000058 913.6000000000058 933.6000000000058 953.6000000000058 973.6000000000058 993.6000000000058 1013.6000000000058 1033.6000000000058 1053.6000000000058 1073.6000000000058 1093.6000000000058 1113.6000000000058 1133.6000000000058 1153.6000000000058 1173.6000000000058 1193.6000000000058 1213.6000000000058 1233.6000000000058 1253.6000000000058 1273.6000000000058 1293.6000000000058 1313.6000000000058 1333.6000000000058 1353.6000000000058 1373.6000000000058 1393.6000000000058 1413.6000000000058 1433.6000000000058 1453.6000000000058 1473.6000000000058 1493.6000000000058 1513.6000000000058 1533.6000000000058 1553.6000000000058 1573.6000000000058 1593.6000000000058 1613.6000000000058 1633.6000000000058 1653.6000000000058 1673.6000000000058 1693.6000000000058 1713.6000000000058 1733.6000000000058 1753.6000000000058 1773.6000000000058 1793.6000000000058 1813.6000000000056 1833.6000000000056 1853.6000000000056
cb_03,4.0,enc_trial,stim,response,Iceland trip,2160.3999999880907,enc_trial,1.0,4.0,t_i_15_1,travel_Iceland,fold-a,compass,3.0,unique,far,paired,t_i_15_1.jpg,Iceland,travel-b1,Iceland trip,Miami trip,sub-53,1.0,1.0,0.0,1.0,0.5055732484076433 0.5055732484076433 0.5047770700636943 0.5047770700636943 0.5047770700636943 0.5047770700636943 0.5047770700636943 0.5047770700636943 0.5047770700636943 0.5047770700636943 0.5047770700636943 0.5047770700636943 0.5047770700636943 0.5047770700636943 0.5047770700636943 0.5071656050955414 0.5079617834394905 0.5087579617834395 0.5103503184713376 0.5103503184713376 0.5111464968152867 0.5119426751592356 0.5119426751592356 0.5119426751592356 0.5119426751592356 0.5111464968152867 0.5103503184713376 0.5111464968152867 0.5119426751592356 0.5127388535031847 0.5159235668789809 0.51671974522293 0.5183121019108279 0.5191082802547771 0.5199044585987261 0.5214968152866242 0.5214968152866242 0.5222929936305732 0.5230891719745223 0.5230891719745223 0.5238853503184714 0.5238853503184714 0.5246815286624203 0.5246815286624203 0.5254777070063694 0.5262738853503185 0.5262738853503185 0.5270700636942676 0.5270700636942676 0.5278662420382165 0.5278662420382165 0.5278662420382165 0.5286624203821656 0.5278662420382165 0.5262738853503185 0.5238853503184714 0.5079617834394905 0.4880573248407643 0.4522292993630573 0.4004777070063694 0.3455414012738853 0.22452229299363047 0.19347133757961785 0.1839171974522293 0.1823248407643312 0.1823248407643312 0.1823248407643312 0.1823248407643312 0.1823248407643312 0.1823248407643312 0.18152866242038213 0.1823248407643312 0.18789808917197454 0.2157643312101911 0.2953821656050956 0.4084394904458599 0.6337579617834395 0.732484076433121 0.8057324840764332 0.8415605095541401 0.8606687898089171 0.8662420382165605 0.8662420382165605 0.8670382165605095 0.8694267515923567 0.8734076433121019 0.8821656050955414 0.8821656050955414 0.8805732484076433 0.8670382165605095 0.8136942675159236 0.6146496815286624 0.4880573248407643 0.3821656050955414 0.3200636942675159 0.2985668789808917 0.2818471337579618 0.2746815286624204 0.2643312101910828 0.2507961783439491 0.2356687898089172 0.2014331210191083 0.18152866242038213 0.16560509554140124 0.1592356687898089 0.1536624203821656 0.13455414012738853 0.1265923566878981 0.12420382165605096,0.8205944798301487 0.8195329087048833 0.8184713375796179 0.8184713375796179 0.8184713375796179 0.8184713375796179 0.8184713375796179 0.8184713375796179 0.8184713375796179 0.8184713375796179 0.8163481953290871 0.8152866242038217 0.8121019108280254 0.8099787685774946 0.805732484076433 0.7961783439490446 0.7908704883227176 0.7866242038216558 0.7823779193205944 0.7791932059447984 0.7717622080679405 0.7685774946921444 0.7664543524416136 0.7632696390658174 0.7622080679405521 0.7590233545647558 0.7558386411889597 0.7526539278131634 0.7494692144373674 0.7462845010615711 0.7367303609341826 0.7314225053078556 0.7261146496815287 0.7218683651804672 0.7176220806794056 0.7112526539278132 0.7091295116772824 0.7059447983014862 0.7038216560509554 0.7006369426751593 0.6985138004246285 0.694267515923567 0.6921443736730362 0.6900212314225054 0.6878980891719746 0.6847133757961783 0.6825902335456475 0.6815286624203822 0.6794055201698515 0.6772823779193207 0.6751592356687899 0.6687898089171975 0.6634819532908705 0.6571125265392781 0.6507430997876857 0.6422505307855626 0.5902335456475584 0.5360934182590233 0.4532908704883227 0.3598726114649682 0.2845010615711253 0.16560509554140124 0.14543524416135878 0.14012738853503182 0.14012738853503182 0.14012738853503182 0.14012738853503182 0.14012738853503182 0.14012738853503182 0.14012738853503182 0.14012738853503182 0.14012738853503182 0.1411889596602972 0.15074309978768574 0.17622080679405516 0.1985138004246284 0.1995753715498938 0.19214437367303605 0.18789808917197448 0.1836518046709129 0.17940552016985134 0.17728237791932056 0.17515923566878974 0.17303609341825898 0.1698513800424628 0.16772823779193202 0.16348195329087045 0.16348195329087045 0.16348195329087045 0.16135881104033967 0.16135881104033967 0.1581740976645435 0.1411889596602972 0.11677282377919318 0.0987261146496815 0.09129511677282376 0.08917197452229297 0.08917197452229297 0.09129511677282376 0.09554140127388533 0.0987261146496815 0.10297239915074308 0.10615711252653924 0.10934182590233543 0.1125265392781316 0.1157112526539278 0.12526539278131632 0.1273885350318471 0.1284501061571125,0.0 20.0 40.0 60.0 80.0 100.0 120.0 140.0 160.0 180.0 200.0 220.0 240.0 260.0 280.0 300.0 320.0 340.0 360.0 380.0 400.0 420.0 440.0 460.0 480.0 500.0 520.0 540.0 560.0 580.0 600.0 620.0 640.0 660.0 680.0 700.0 720.0 740.0 760.0 780.0 800.0 820.0 840.0 860.0 880.0 900.0 920.0 940.0 960.0 980.0 1000.0 1020.0 1040.0 1060.0 1080.0 1100.0 1120.0 1140.0 1160.0 1180.0 1200.0 1220.0 1240.0 1260.0 1280.0 1300.0 1320.0 1340.0 1360.0 1380.0 1400.0 1420.0 1440.0 1460.0 1480.0 1500.0 1520.0 1540.0 1560.0 1580.0 1600.0 1620.0 1640.0 1660.0 1680.0 1700.0 1720.0 1740.0 1760.0 1780.0 1800.0 1820.0 1840.0 1860.0 1880.0 1900.0 1920.0 1940.0 1960.0 1980.0 2000.0 2020.0 2040.0 2060.0 2080.0 2100.0 2120.0 2140.0 2160.0
cb_03,5.0,enc_trial,stim,response,Miami trip,1386.2999999880853,enc_trial,1.0,5.0,t_s_23_1,travel_shared,fold-c,ball cap,3.0,competing,far,paired,t_s_23_1.jpg,,travel-b1,Iceland trip,Miami trip,sub-53,0.0,0.0,1.0,1.0,0.5039808917197452 0.5039808917197452 0.5039808917197452 0.5031847133757962 0.5031847133757962 0.5031847133757962 0.5031847133757962 0.5031847133757962 0.5031847133757962 0.5031847133757962 0.5031847133757962 0.5031847133757962 0.5031847133757962 0.5039808917197452 0.5039808917197452 0.5039808917197452 0.5047770700636943 0.5047770700636943 0.5047770700636943 0.5047770700636943 0.5047770700636943 0.5047770700636943 0.5047770700636943 0.5055732484076433 0.5055732484076433 0.5055732484076433 0.5063694267515924 0.5071656050955414 0.5071656050955414 0.5087579617834395 0.5095541401273885 0.5111464968152867 0.5119426751592356 0.5135350318471338 0.5143312101910829 0.5159235668789809 0.5159235668789809 0.51671974522293 0.51671974522293 0.51671974522293 0.51671974522293 0.5151273885350318 0.5119426751592356 0.5039808917197452 0.4888535031847134 0.4593949044585987 0.3503184713375796 0.2898089171974522 0.2372611464968153 0.2030254777070064 0.1910828025477707 0.1886942675159236 0.1886942675159236 0.1886942675159236 0.1910828025477707 0.19506369426751602 0.2277070063694268 0.2834394904458599 0.3670382165605096 0.4864649681528662 0.6210191082802548 0.8335987261146497 0.8893312101910829 0.9211783439490446 0.9307324840764332 0.931528662420382 0.931528662420382 0.931528662420382 0.9331210191082804 0.9331210191082804,0.8343949044585988 0.8333333333333334 0.8333333333333334 0.832271762208068 0.8312101910828026 0.8290870488322718 0.826963906581741 0.8259023354564756 0.8237791932059448 0.8227176220806794 0.8195329087048833 0.8184713375796179 0.8174097664543525 0.8163481953290871 0.8152866242038217 0.8131634819532909 0.8121019108280254 0.8110403397027601 0.8099787685774946 0.8099787685774946 0.8078556263269638 0.8067940552016986 0.805732484076433 0.8046709129511678 0.8046709129511678 0.8025477707006371 0.8004246284501062 0.7983014861995754 0.7961783439490446 0.7940552016985138 0.7908704883227176 0.7855626326963907 0.7834394904458599 0.7802547770700636 0.7770700636942676 0.7717622080679405 0.7696390658174097 0.7675159235668789 0.7653927813163481 0.7622080679405521 0.7590233545647558 0.7473460721868366 0.7388535031847134 0.7218683651804672 0.6932059447983014 0.6316348195329087 0.4203821656050956 0.32059447983014866 0.25053078556263275 0.2154989384288747 0.20700636942675155 0.2048832271762208 0.2048832271762208 0.20594479830148613 0.2091295116772824 0.2144373673036093 0.2261146496815286 0.2303609341825901 0.2324840764331209 0.2314225053078556 0.22399150743099785 0.1995753715498938 0.19214437367303605 0.1868365180467091 0.1836518046709129 0.18152866242038213 0.17622080679405516 0.1719745222929936 0.16666666666666666 0.16348195329087045,0.0 20.0 40.0 60.0 80.0 100.0 120.0 140.0 160.0 180.0 200.0 220.0 240.0 260.0 280.0 300.0 320.0 340.0 360.0 380.0 400.0 420.0 440.0 460.0 480.0 500.0 520.0 540.0 560.0 580.0 600.0 620.0 640.0 660.0 680.0 700.0 720.0 740.0 760.0 780.0 800.0 820.0 840.0 860.0 880.0 900.0 920.0 940.0 960.0 980.0 1000.0 1020.0 1040.0 1060.0 1080.0 1100.0 1120.0 1140.0 1160.0 1180.0 1200.0 1220.0 1240.0 1260.0 1280.0 1300.0 1320.0 1340.0 1360.0 1380.0
cb_03,6.0,enc_trial,stim,response,Miami trip,1083.499999999971,enc_trial,1.0,6.0,t_s_04_2,travel_shared,fold-c,instant camera,3.0,competing,far,paired,t_s_04_2.jpg,,travel-b1,Iceland trip,Miami trip,sub-53,1.0,1.0,1.0,1.0,0.4936305732484077 0.4944267515923567 0.4944267515923567 0.4944267515923567 0.4952229299363057 0.4952229299363057 0.4952229299363057 0.4960191082802548 0.4960191082802548 0.4960191082802548 0.4960191082802548 0.4968152866242038 0.4968152866242038 0.4968152866242038 0.4976114649681528 0.4976114649681528 0.4976114649681528 0.4984076433121019 0.4984076433121019 0.4984076433121019 0.4992038216560509 0.5 0.5 0.5007961783439491 0.5015923566878981 0.5031847133757962 0.5047770700636943 0.5063694267515924 0.5071656050955414 0.5087579617834395 0.5095541401273885 0.5103503184713376 0.5151273885350318 0.5278662420382165 0.5509554140127388 0.5835987261146497 0.6656050955414012 0.7269108280254777 0.7890127388535032 0.8455414012738853 0.8789808917197452 0.9092356687898088 0.9140127388535032 0.9156050955414012 0.9156050955414012 0.9156050955414012 0.9140127388535032 0.9124203821656052 0.90843949044586 0.9044585987261148 0.8988853503184714 0.8909235668789809,0.8152866242038217 0.8142250530785563 0.8131634819532909 0.8121019108280254 0.8110403397027601 0.8089171974522293 0.8078556263269638 0.8067940552016986 0.805732484076433 0.8046709129511678 0.8036093418259023 0.8014861995753715 0.8004246284501062 0.7993630573248407 0.7983014861995754 0.7961783439490446 0.7940552016985138 0.7929936305732483 0.7908704883227176 0.7898089171974523 0.7855626326963907 0.7834394904458599 0.7802547770700636 0.7770700636942676 0.772823779193206 0.7611464968152866 0.7537154989384289 0.7462845010615711 0.7388535031847134 0.7314225053078556 0.7186836518046709 0.7091295116772824 0.6889596602972399 0.6571125265392781 0.6125265392781316 0.5636942675159236 0.4681528662420382 0.4097664543524416 0.3481953290870489 0.2876857749469215 0.24840764331210186 0.2091295116772824 0.1995753715498938 0.19214437367303605 0.1868365180467091 0.1847133757961783 0.1804670912951168 0.17728237791932056 0.1719745222929936 0.16454352441613584 0.15286624203821653 0.1411889596602972,50.0 70.0 90.0 110.0 130.0 150.0 170.0 190.0 210.0 230.0 250.0 270.0 290.0 310.0 330.0 350.0 370.0 390.0 410.0 430.0 450.0 470.0 490.0 510.0 530.0 550.0 570.0 590.0 610.0 630.0 650.0 670.0 690.0 710.0 730.0 750.0 770.0 790.0 810.0 830.0 850.0 870.0 890.0 910.0 930.0 950.0 970.0 990.0 1010.0 1030.0 1050.0 1070.0
cb_03,7.0,enc_trial,stim,response,Miami trip,907.0999999880733,enc_trial,1.0,7.0,t_m_04_1,travel_Miami,fold-e,UV jacket,3.0,unique,close,paired,t_m_04_1.jpg,Miami,travel-b1,Iceland trip,Miami trip,sub-53,0.0,0.0,0.0,0.0,0.4737261146496815 0.4753184713375796 0.4753184713375796 0.4753184713375796 0.4753184713375796 0.4753184713375796 0.4761146496815287 0.4761146496815287 0.4769108280254777 0.4785031847133758 0.4792993630573249 0.4840764331210191 0.4864649681528662 0.4880573248407643 0.4896496815286624 0.4912420382165605 0.4944267515923567 0.4952229299363057 0.4952229299363057 0.4960191082802548 0.4960191082802548 0.4968152866242038 0.4968152866242038 0.4984076433121019 0.4992038216560509 0.5007961783439491 0.5079617834394905 0.5222929936305732 0.5485668789808917 0.5923566878980892 0.6417197452229301 0.7691082802547771 0.8224522292993629 0.8710191082802548 0.8957006369426752 0.9012738853503184 0.9012738853503184 0.9004777070063694 0.8996815286624203 0.8988853503184714 0.8980891719745223 0.8964968152866242 0.8957006369426752 0.8941082802547771 0.8933121019108281 0.89171974522293,0.8375796178343949 0.8386411889596603 0.8386411889596603 0.8386411889596603 0.8386411889596603 0.8386411889596603 0.8375796178343949 0.8365180467091295 0.8354564755838642 0.8343949044585988 0.8333333333333334 0.8290870488322718 0.8280254777070064 0.8259023354564756 0.8237791932059448 0.821656050955414 0.8163481953290871 0.8152866242038217 0.8142250530785563 0.8121019108280254 0.8099787685774946 0.8078556263269638 0.805732484076433 0.8036093418259023 0.7993630573248407 0.7940552016985138 0.7717622080679405 0.7462845010615711 0.7006369426751593 0.6252653927813163 0.5403397027600849 0.3290870488322718 0.2441613588110403 0.18259023354564752 0.16242038216560506 0.16135881104033967 0.16135881104033967 0.16242038216560506 0.16348195329087045 0.16348195329087045 0.16348195329087045 0.16454352441613584 0.16454352441613584 0.16454352441613584 0.16454352441613584 0.16348195329087045,0.0 20.0 40.0 60.0 80.0 100.0 120.0 140.0 160.0 180.0 200.0 220.0 240.0 260.0 280.0 300.0 320.0 340.0 360.0 380.0 400.0 420.0 440.0 460.0 480.0 500.0 520.0 540.0 560.0 580.0 600.0 620.0 640.0 660.0 680.0 700.0 720.0 740.0 760.0 780.0 800.0 820.0 840.0 860.0 880.0 900.0
cb_03,8.0,enc_trial,stim,response,Iceland trip,1087.2000000238477,enc_trial,1.0,8.0,t_i_19_1,travel_Iceland,fold-b-single,rope,3.0,unique,,single,t_i_19_1.jpg,Iceland,travel-b1,Iceland trip,Miami trip,sub-53,1.0,,1.0,,0.4976114649681528 0.4984076433121019 0.4984076433121019 0.4984076433121019 0.4984076433121019 0.4992038216560509 0.4992038216560509 0.5 0.5007961783439491 0.5007961783439491 0.5023885350318471 0.5031847133757962 0.5031847133757962 0.5039808917197452 0.5047770700636943 0.5071656050955414 0.5079617834394905 0.5087579617834395 0.5103503184713376 0.5119426751592356 0.5143312101910829 0.51671974522293 0.5183121019108279 0.5199044585987261 0.5222929936305732 0.5270700636942676 0.5302547770700637 0.5390127388535032 0.5549363057324841 0.5780254777070064 0.6441082802547771 0.6926751592356688 0.75 0.8049363057324841 0.8606687898089171 0.9251592356687898 0.929936305732484 0.929936305732484 0.926751592356688 0.9195859872611464 0.8495222929936306 0.7659235668789809 0.6536624203821656 0.5175159235668789 0.3821656050955414 0.27070063694267515 0.17436305732484075 0.17117834394904458 0.17117834394904458 0.17197452229299362 0.1735668789808917 0.1767515923566879 0.17914012738853502 0.1807324840764331,0.826963906581741 0.8259023354564756 0.8248407643312102 0.8237791932059448 0.821656050955414 0.8195329087048833 0.8174097664543525 0.8152866242038217 0.8131634819532909 0.8110403397027601 0.8067940552016986 0.8036093418259023 0.8025477707006371 0.8004246284501062 0.7972399150743099 0.7898089171974523 0.7876857749469215 0.7845010615711252 0.7802547770700636 0.7749469214437368 0.7622080679405521 0.7547770700636942 0.7462845010615711 0.7367303609341826 0.727176220806794 0.7112526539278132 0.7006369426751593 0.6878980891719746 0.6602972399150744 0.6157112526539278 0.4893842887473461 0.4055201698513801 0.3152866242038217 0.2420382165605095 0.18259023354564752 0.13694267515923564 0.13481953290870485 0.13481953290870485 0.13481953290870485 0.13588110403397025 0.13163481953290868 0.12208067940552016 0.11146496815286623 0.0997876857749469 0.09129511677282376 0.08917197452229297 0.08917197452229297 0.09023354564755837 0.09129511677282376 0.09235668789808917 0.09447983014861994 0.10509554140127386 0.11146496815286623 0.11358811040339699,0.0 20.0 40.0 60.0 80.0 100.0 120.0 140.0 160.0 180.0 200.0 220.0 240.0 260.0 280.0 300.0 320.0 340.0 360.0 380.0 400.0 420.0 440.0 460.0 480.0 500.0 520.0 540.0 560.0 580.0 600.0 620.0 640.0 660.0 680.0 700.0 720.0 740.0 760.0 780.0 800.0 820.0 840.0 860.0 880.0 900.0 920.0 940.0 960.0 980.0 1000.0 1020.0 1040.0 1060.0
cb_03,9.0,enc_trial,stim,response,Miami trip,1027.7999999999884,enc_trial,1.0,9.0,t_s_11_1,travel_shared,fold-a-single,eye mask,3.0,competing,,single,t_s_11_1.jpg,,travel-b1,Iceland trip,Miami trip,sub-53,1.0,,1.0,,0.4968152866242038 0.4968152866242038 0.4968152866242038 0.4960191082802548 0.4960191082802548 0.4960191082802548 0.4960191082802548 0.4960191082802548 0.4960191082802548 0.4968152866242038 0.4968152866242038 0.4976114649681528 0.4984076433121019 0.4984076433121019 0.4984076433121019 0.5 0.5 0.5 0.5007961783439491 0.5007961783439491 0.5007961783439491 0.5015923566878981 0.5015923566878981 0.5023885350318471 0.5023885350318471 0.5047770700636943 0.5055732484076433 0.5087579617834395 0.5199044585987261 0.5485668789808917 0.6624203821656051 0.7460191082802548 0.8224522292993629 0.8773885350318471 0.9060509554140128 0.9092356687898088 0.9092356687898088 0.9092356687898088 0.9092356687898088 0.9092356687898088 0.9044585987261148 0.9028662420382164 0.9020700636942676 0.9020700636942676 0.9020700636942676 0.9020700636942676 0.9004777070063694 0.8980891719745223 0.8972929936305732 0.8972929936305732,0.8174097664543525 0.8163481953290871 0.8152866242038217 0.8142250530785563 0.8131634819532909 0.8131634819532909 0.8121019108280254 0.8099787685774946 0.8078556263269638 0.8046709129511678 0.7972399150743099 0.7940552016985138 0.7908704883227176 0.7876857749469215 0.7845010615711252 0.7770700636942676 0.772823779193206 0.7696390658174097 0.7675159235668789 0.7653927813163481 0.7622080679405521 0.7558386411889597 0.7515923566878981 0.7462845010615711 0.7409766454352442 0.7303609341825903 0.7239915074309979 0.7101910828025477 0.6762208067940552 0.6082802547770699 0.3991507430997877 0.2866242038216561 0.2080679405520169 0.16772823779193202 0.15392781316348192 0.15392781316348192 0.15392781316348192 0.15392781316348192 0.15392781316348192 0.15180467091295113 0.13057324840764328 0.12526539278131632 0.12420382165605093 0.12420382165605093 0.12420382165605093 0.12420382165605093 0.12420382165605093 0.12526539278131632 0.12526539278131632 0.12526539278131632,0.0 20.0 40.0 60.0 80.0 100.0 120.0 140.0 160.0 180.0 200.0 220.0 240.0 260.0 280.0 300.0 320.0 340.0 360.0 380.0 400.0 420.0 440.0 460.0 480.0 500.0 520.0 540.0 560.0 580.0 600.0 620.0 640.0 660.0 680.0 700.0 720.0 740.0 760.0 780.0 800.0 820.0 840.0 860.0 880.0 900.0 920.0 940.0 960.0 980.0
cb_03,10.0,enc_trial,stim,response,Iceland trip,1020.7999999880847,enc_trial,1.0,10.0,t_s_02_2,travel_shared,fold-b,water bottle,3.0,competing,close,paired,t_s_02_2.jpg,,travel-b1,Iceland trip,Miami trip,sub-53,1.0,1.0,1.0,1.0,0.5047770700636943 0.5039808917197452 0.5039808917197452 0.5039808917197452 0.5039808917197452 0.5031847133757962 0.5031847133757962 0.5031847133757962 0.5031847133757962 0.5031847133757962 0.5031847133757962 0.5031847133757962 0.5031847133757962 0.5031847133757962 0.5031847133757962 0.4984076433121019 0.482484076433121 0.4482484076433121 0.3957006369426752 0.3272292993630573 0.2213375796178344 0.19585987261146487 0.1886942675159236 0.18550955414012726 0.1839171974522293 0.18152866242038213 0.17914012738853502 0.17038216560509553 0.15605095541401273 0.1480891719745223 0.14331210191082802 0.1409235668789809 0.14012738853503184 0.1393312101910828 0.13694267515923567 0.13296178343949044 0.1305732484076433 0.12977707006369427 0.12898089171974522 0.12898089171974522 0.12898089171974522 0.12898089171974522,0.8067940552016986 0.8067940552016986 0.805732484076433 0.805732484076433 0.805732484076433 0.805732484076433 0.8046709129511678 0.8036093418259023 0.8036093418259023 0.8025477707006371 0.8004246284501062 0.7983014861995754 0.7972399150743099 0.7961783439490446 0.7929936305732483 0.7770700636942676 0.743099787685775 0.6698513800424628 0.5700636942675159 0.4596602972399151 0.3004246284501062 0.26751592356687903 0.2611464968152867 0.2590233545647559 0.2569002123142251 0.2537154989384289 0.25053078556263275 0.2452229299363057 0.23779193205944799 0.2367303609341825 0.2367303609341825 0.2346072186836517 0.2292993630573248 0.22186836518046704 0.21125265392781312 0.18895966029723987 0.1804670912951168 0.17622080679405516 0.17515923566878974 0.17515923566878974 0.17622080679405516 0.17622080679405516,183.5 203.5 223.5 243.5 263.5 283.5 303.5 323.5 343.5 363.5 383.5 403.5 423.5 443.5 463.5 483.5 503.5 523.5 543.5 563.5 583.5 603.5 623.5 643.5 663.5 683.5 703.5 723.5 743.5 763.5 783.5 803.5 823.5 843.5 863.5 883.5 903.5 923.5 943.5 963.5 983.5 1003.5
cb_03,11.0,enc_trial,stim,response,Miami trip,893.1999999880791,enc_trial,1.0,11.0,t_m_20_1,travel_Miami,fold-e,inflatable beachball,3.0,unique,close,paired,t_m_20_1.jpg,Miami,travel-b1,Iceland trip,Miami trip,sub-53,1.0,1.0,1.0,1.0,0.4944267515923567 0.4952229299363057 0.4952229299363057 0.4952229299363057 0.4960191082802548 0.4960191082802548 0.4960191082802548 0.4960191082802548 0.4960191082802548 0.4960191082802548 0.4960191082802548 0.4968152866242038 0.4968152866242038 0.4976114649681528 0.4976114649681528 0.4976114649681528 0.4976114649681528 0.4984076433121019 0.4984076433121019 0.4984076433121019 0.4984076433121019 0.4984076433121019 0.4984076433121019 0.4992038216560509 0.4992038216560509 0.5 0.5007961783439491 0.5023885350318471 0.5039808917197452 0.5079617834394905 0.5159235668789809 0.5684713375796179 0.6170382165605095 0.6711783439490446 0.7277070063694268 0.7890127388535032 0.8718152866242038 0.8837579617834395 0.8861464968152867 0.8861464968152867 0.8861464968152867 0.8861464968152867 0.8853503184713376 0.8845541401273885 0.8845541401273885 0.8837579617834395,0.8195329087048833 0.8184713375796179 0.8174097664543525 0.8163481953290871 0.8163481953290871 0.8152866242038217 0.8152866242038217 0.8142250530785563 0.8142250530785563 0.8142250530785563 0.8142250530785563 0.8121019108280254 0.8110403397027601 0.8110403397027601 0.8099787685774946 0.8099787685774946 0.8078556263269638 0.8067940552016986 0.8067940552016986 0.805732484076433 0.8046709129511678 0.8014861995753715 0.7993630573248407 0.7972399150743099 0.7951167728237791 0.7929936305732483 0.7866242038216558 0.7813163481953291 0.7749469214437368 0.7664543524416136 0.7452229299363058 0.6326963906581742 0.5445859872611465 0.4511677282377921 0.3630573248407644 0.2717622080679406 0.17303609341825898 0.16135881104033967 0.1581740976645435 0.1581740976645435 0.1581740976645435 0.1581740976645435 0.1571125265392781 0.1560509554140127 0.1549893842887473 0.15392781316348192,0.0 20.0 40.0 60.0 80.0 100.0 120.0 140.0 160.0 180.0 200.0 220.0 240.0 260.0 280.0 300.0 320.0 340.0 360.0 380.0 400.0 420.0 440.0 460.0 480.0 500.0 520.0 540.0 560.0 580.0 600.0 620.0 640.0 660.0 680.0 700.0 720.0 740.0 760.0 780.0 800.0 820.0 840.0 860.0 880.0 900.0
cb_03,12.0,enc_trial,stim,response,Miami trip,809.6000000238419,enc_trial,1.0,12.0,t_m_01_1,travel_Miami,fold-a,sandals,3.0,unique,far,paired,t_m_01_1.jpg,Miami,travel-b1,Iceland trip,Miami trip,sub-53,1.0,1.0,1.0,1.0,0.4888535031847134 0.4888535031847134 0.4888535031847134 0.4888535031847134 0.4896496815286624 0.4896496815286624 0.4904458598726114 0.4904458598726114 0.4912420382165605 0.4912420382165605 0.4920382165605096 0.4936305732484077 0.4944267515923567 0.4952229299363057 0.4960191082802548 0.4968152866242038 0.4992038216560509 0.5 0.5007961783439491 0.5023885350318471 0.5055732484076433 0.5119426751592356 0.5143312101910829 0.5183121019108279 0.5278662420382165 0.5485668789808917 0.6210191082802548 0.6695859872611465 0.7285031847133758 0.7858280254777071 0.8351910828025477 0.875 0.8773885350318471 0.8773885350318471 0.8765923566878981 0.8757961783439491 0.875 0.875,0.826963906581741 0.8259023354564756 0.8237791932059448 0.8227176220806794 0.821656050955414 0.8205944798301487 0.8184713375796179 0.8174097664543525 0.8152866242038217 0.8131634819532909 0.8121019108280254 0.8067940552016986 0.8046709129511678 0.8036093418259023 0.8014861995753715 0.7993630573248407 0.7961783439490446 0.7951167728237791 0.7929936305732483 0.7898089171974523 0.7823779193205944 0.7643312101910829 0.7558386411889597 0.7441613588110403 0.7218683651804672 0.6730360934182591 0.5031847133757962 0.3970276008492569 0.27813163481953296 0.17728237791932056 0.11146496815286623 0.0859872611464968 0.0859872611464968 0.0859872611464968 0.08704883227176219 0.08917197452229297 0.09129511677282376 0.09235668789808917,0.0 20.0 40.0 60.0 80.0 100.0 120.0 140.0 160.0 180.0 200.0 220.0 240.0 260.0 280.0 300.0 320.0 340.0 360.0 380.0 400.0 420.0 440.0 460.0 480.0 500.0 520.0 540.0 560.0 580.0 600.0 620.0 640.0 660.0 680.0 700.0 720.0 740.0
cb_03,13.0,enc_trial,stim,response,Iceland trip,893.7000000000116,enc_trial,1.0,13.0,t_m_04_2,travel_Miami,fold-e,UV jacket,3.0,unique,close,paired,t_m_04_2.jpg,Miami,travel-b1,Iceland trip,Miami trip,sub-53,0.0,0.0,0.0,0.0,0.5047770700636943 0.5047770700636943 0.5047770700636943 0.5047770700636943 0.5047770700636943 0.5047770700636943 0.5047770700636943 0.5047770700636943 0.5055732484076433 0.5063694267515924 0.5095541401273885 0.5111464968152867 0.51671974522293 0.5310509554140127 0.5533439490445861 0.5804140127388535 0.6305732484076433 0.6457006369426752 0.6512738853503185 0.6464968152866242 0.5843949044585988 0.5127388535031847 0.4339171974522293 0.3519108280254777 0.2818471337579618 0.1767515923566879 0.15047770700636942 0.14251592356687898 0.13853503184713375 0.13614649681528662 0.13455414012738853 0.13455414012738853 0.1337579617834395 0.1305732484076433 0.12420382165605096 0.11464968152866242 0.10828025477707008,0.8280254777070064 0.8280254777070064 0.826963906581741 0.826963906581741 0.826963906581741 0.8259023354564756 0.8248407643312102 0.8227176220806794 0.8195329087048833 0.8152866242038217 0.8025477707006371 0.7919320594479831 0.7696390658174097 0.7314225053078556 0.6815286624203822 0.6252653927813163 0.5222929936305732 0.4830148619957537 0.4532908704883227 0.4352441613588111 0.3853503184713376 0.3545647558386412 0.32271762208067944 0.2855626326963907 0.2473460721868365 0.17940552016985134 0.1581740976645435 0.15074309978768574 0.14543524416135878 0.1411889596602972 0.13800424628450106 0.13694267515923564 0.13694267515923564 0.13481953290870485 0.13057324840764328 0.12526539278131632 0.11995753715498934,166.40000000002328 186.40000000002328 206.40000000002328 226.40000000002328 246.40000000002328 266.4000000000233 286.4000000000233 306.4000000000233 326.4000000000233 346.40000000002334 366.40000000002334 386.40000000002334 406.40000000002334 426.40000000002334 446.40000000002334 466.40000000002334 486.40000000002334 506.40000000002334 526.4000000000234 546.4000000000234 566.4000000000233 586.4000000000233 606.4000000000233 626.4000000000233 646.4000000000233 666.4000000000233 686.4000000000233 706.4000000000232 726.4000000000232 746.4000000000232 766.4000000000232 786.4000000000232 806.4000000000232 826.4000000000232 846.4000000000232 866.4000000000232 886.4000000000232
cb_03,14.0,enc_trial,stim,response,Miami trip,1131.9000000119267,enc_trial,1.0,14.0,t_s_06_1,travel_shared,fold-b,luggage,3.0,competing,close,paired,t_s_06_1.jpg,,travel-b1,Iceland trip,Miami trip,sub-53,1.0,1.0,1.0,1.0,0.4800955414012738 0.4832802547770701 0.4872611464968153 0.4888535031847134 0.4888535031847134 0.4888535031847134 0.4888535031847134 0.4888535031847134 0.4888535031847134 0.4888535031847134 0.4888535031847134 0.4888535031847134 0.4888535031847134 0.4888535031847134 0.4888535031847134 0.4888535031847134 0.4888535031847134 0.4896496815286624 0.4896496815286624 0.4904458598726114 0.4904458598726114 0.4912420382165605 0.4912420382165605 0.4920382165605096 0.4920382165605096 0.4928343949044586 0.4944267515923567 0.4952229299363057 0.4960191082802548 0.4968152866242038 0.4968152866242038 0.4976114649681528 0.4984076433121019 0.4984076433121019 0.4992038216560509 0.5 0.5015923566878981 0.5015923566878981 0.5023885350318471 0.5047770700636943 0.5159235668789809 0.6178343949044586 0.6783439490445862 0.7205414012738853 0.7539808917197452 0.7914012738853503 0.8407643312101911 0.8487261146496815 0.8519108280254777 0.8527070063694268 0.8511146496815286 0.8495222929936306 0.8519108280254777 0.8542993630573248 0.85828025477707 0.8598726114649682,0.8184713375796179 0.8184713375796179 0.8195329087048833 0.8184713375796179 0.8184713375796179 0.8184713375796179 0.8174097664543525 0.8174097664543525 0.8174097664543525 0.8174097664543525 0.8174097664543525 0.8174097664543525 0.8174097664543525 0.8174097664543525 0.8174097664543525 0.8174097664543525 0.8152866242038217 0.8131634819532909 0.8121019108280254 0.8089171974522293 0.805732484076433 0.8004246284501062 0.7993630573248407 0.7972399150743099 0.7940552016985138 0.7908704883227176 0.7834394904458599 0.7781316348195328 0.7738853503184713 0.7685774946921444 0.7653927813163481 0.7611464968152866 0.7590233545647558 0.756900212314225 0.7547770700636942 0.7526539278131634 0.7494692144373674 0.7473460721868366 0.7462845010615711 0.7409766454352442 0.7197452229299364 0.5498938428874734 0.4426751592356688 0.3290870488322718 0.23566878980891715 0.1571125265392781 0.1157112526539278 0.11146496815286623 0.10934182590233543 0.10615711252653924 0.0997876857749469 0.09235668789808917 0.08704883227176219 0.08067940552016982 0.07430997876857748 0.07324840764331209,16.300000000017462 36.30000000001746 56.30000000001746 76.30000000001745 96.30000000001745 116.30000000001745 136.30000000001746 156.30000000001746 176.30000000001746 196.30000000001743 216.30000000001743 236.30000000001743 256.3000000000174 276.3000000000174 296.3000000000174 316.3000000000174 336.3000000000174 356.30000000001746 376.30000000001746 396.30000000001746 416.30000000001746 436.30000000001746 456.30000000001746 476.30000000001746 496.30000000001746 516.3000000000175 536.3000000000175 556.3000000000175 576.3000000000175 596.3000000000175 616.3000000000175 636.3000000000175 656.3000000000175 676.3000000000175 696.3000000000176 716.3000000000176 736.3000000000176 756.3000000000176 776.3000000000176 796.3000000000176 816.3000000000176 836.3000000000176 856.3000000000176 876.3000000000176 896.3000000000176 916.3000000000177 936.3000000000177 956.3000000000177 976.3000000000177 996.3000000000177 1016.3000000000177 1036.3000000000177 1056.3000000000177 1076.3000000000177 1096.3000000000177 1116.3000000000177
cb_03,15.0,enc_trial,stim,response,Miami trip,783.3000000000177,enc_trial,1.0,15.0,t_m_17_1,travel_Miami,fold-a,water gun,3.0,unique,far,paired,t_m_17_1.jpg,Miami,travel-b1,Iceland trip,Miami trip,sub-53,1.0,1.0,1.0,1.0,0.5 0.5 0.5 0.5 0.5 0.5 0.5007961783439491 0.5007961783439491 0.5007961783439491 0.5007961783439491 0.5007961783439491 0.5015923566878981 0.5015923566878981 0.5023885350318471 0.5023885350318471 0.5031847133757962 0.5031847133757962 0.5031847133757962 0.5039808917197452 0.5047770700636943 0.5199044585987261 0.5437898089171974 0.5668789808917197 0.5971337579617835 0.6345541401273885 0.7078025477707006 0.7404458598726115 0.7730891719745223 0.8025477707006371 0.8256369426751592 0.8423566878980892 0.8479299363057324 0.8542993630573248 0.8646496815286624 0.8789808917197452 0.8885350318471338 0.8885350318471338 0.8885350318471338 0.8893312101910829,0.821656050955414 0.821656050955414 0.821656050955414 0.821656050955414 0.821656050955414 0.821656050955414 0.821656050955414 0.821656050955414 0.821656050955414 0.821656050955414 0.821656050955414 0.821656050955414 0.821656050955414 0.8205944798301487 0.8184713375796179 0.8121019108280254 0.8089171974522293 0.8036093418259023 0.7961783439490446 0.7781316348195328 0.6560509554140128 0.5435244161358811 0.45010615711252655 0.3556263269639066 0.2802547770700637 0.2409766454352441 0.23779193205944799 0.2324840764331209 0.22717622080679398 0.22292993630573246 0.21762208067940547 0.2123142250530785 0.2048832271762208 0.19108280254777066 0.17303609341825898 0.1581740976645435 0.15286624203821653 0.14649681528662414 0.14012738853503182,16.699999999982538 36.69999999998254 56.69999999998254 76.69999999998255 96.69999999998255 116.69999999998255 136.69999999998254 156.69999999998254 176.69999999998254 196.69999999998254 216.69999999998254 236.69999999998254 256.69999999998254 276.69999999998254 296.6999999999825 316.6999999999825 336.6999999999825 356.69999999998254 376.69999999998254 396.69999999998254 416.69999999998254 436.69999999998254 456.69999999998254 476.69999999998254 496.69999999998254 516.6999999999825 536.6999999999825 556.6999999999825 576.6999999999825 596.6999999999825 616.6999999999825 636.6999999999825 656.6999999999825 676.6999999999825 696.6999999999824 716.6999999999824 736.6999999999824 756.6999999999824 776.6999999999824
cb_03,16.0,enc_trial,stim,response,Miami trip,1152.9000000119267,enc_trial,1.0,16.0,t_m_20_2,travel_Miami,fold-e,inflatable beachball,3.0,unique,close,paired,t_m_20_2.jpg,Miami,travel-b1,Iceland trip,Miami trip,sub-53,1.0,1.0,1.0,1.0,0.4880573248407643 0.4880573248407643 0.4888535031847134 0.4912420382165605 0.4928343949044586 0.4936305732484077 0.4960191082802548 0.4968152866242038 0.4976114649681528 0.4984076433121019 0.4992038216560509 0.4992038216560509 0.4992038216560509 0.4992038216560509 0.4992038216560509 0.5031847133757962 0.5071656050955414 0.5103503184713376 0.5143312101910829 0.5159235668789809 0.5199044585987261 0.5374203821656051 0.5636942675159236 0.5907643312101911 0.6035031847133758 0.606687898089172 0.6011146496815286 0.6011146496815286 0.6011146496815286 0.6011146496815286 0.6011146496815286 0.6011146496815286 0.6011146496815286 0.6011146496815286 0.6011146496815286 0.6011146496815286 0.6019108280254777 0.6098726114649682 0.6305732484076433 0.6695859872611465 0.7722929936305732 0.8240445859872612 0.8614649681528662 0.8797770700636943 0.8885350318471338 0.8933121019108281 0.8964968152866242 0.8980891719745223 0.9012738853503184 0.9028662420382164 0.9036624203821656 0.9028662420382164 0.8988853503184714 0.8933121019108281 0.8877388535031847 0.8861464968152867,0.8142250530785563 0.8142250530785563 0.8142250530785563 0.8142250530785563 0.8152866242038217 0.8152866242038217 0.8131634819532909 0.8110403397027601 0.8089171974522293 0.8078556263269638 0.8078556263269638 0.8078556263269638 0.8078556263269638 0.8078556263269638 0.8067940552016986 0.7993630573248407 0.7929936305732483 0.7866242038216558 0.7781316348195328 0.7664543524416136 0.6581740976645436 0.5594479830148621 0.445859872611465 0.35244161358811044 0.3184713375796179 0.32271762208067944 0.332271762208068 0.332271762208068 0.332271762208068 0.332271762208068 0.332271762208068 0.332271762208068 0.332271762208068 0.332271762208068 0.332271762208068 0.332271762208068 0.33333333333333337 0.33333333333333337 0.3259023354564756 0.30785562632696395 0.2579617834394905 0.2303609341825901 0.2091295116772824 0.1963906581740976 0.18789808917197448 0.18152866242038213 0.17303609341825898 0.16772823779193202 0.16135881104033967 0.1560509554140127 0.15392781316348192 0.15392781316348192 0.1549893842887473 0.1549893842887473 0.15286624203821653 0.15074309978768574,50.10000000000582 70.10000000000582 90.10000000000582 110.10000000000582 130.10000000000582 150.10000000000582 170.10000000000582 190.10000000000585 210.10000000000585 230.10000000000585 250.10000000000585 270.1000000000058 290.1000000000058 310.1000000000058 330.1000000000058 350.1000000000058 370.1000000000058 390.1000000000058 410.1000000000058 430.1000000000058 450.1000000000058 470.1000000000058 490.1000000000058 510.1000000000058 530.1000000000058 550.1000000000058 570.1000000000057 590.1000000000057 610.1000000000057 630.1000000000057 650.1000000000057 670.1000000000057 690.1000000000058 710.1000000000058 730.1000000000058 750.1000000000058 770.1000000000058 790.1000000000058 810.1000000000058 830.1000000000058 850.1000000000058 870.1000000000058 890.1000000000058 910.1000000000058 930.1000000000058 950.1000000000058 970.1000000000058 990.1000000000058 1010.1000000000058 1030.1000000000058 1050.1000000000058 1070.1000000000058 1090.1000000000058 1110.1000000000058 1130.1000000000058 1150.1000000000058
cb_03,17.0,enc_trial,stim,response,Iceland trip,965.4999999880673,enc_trial,1.0,17.0,t_i_15_2,travel_Iceland,fold-a,compass,3.0,unique,far,paired,t_i_15_2.jpg,Iceland,travel-b1,Iceland trip,Miami trip,sub-53,1.0,1.0,0.0,1.0,0.4992038216560509 0.5 0.5 0.5 0.5 0.5 0.5007961783439491 0.5007961783439491 0.5007961783439491 0.5007961783439491 0.5007961783439491 0.5007961783439491 0.5007961783439491 0.5007961783439491 0.5007961783439491 0.5015923566878981 0.5015923566878981 0.5015923566878981 0.5015923566878981 0.5015923566878981 0.5015923566878981 0.5023885350318471 0.5023885350318471 0.5015923566878981 0.4944267515923567 0.40445859872611467 0.3455414012738853 0.31528662420382164 0.3057324840764331 0.30095541401273884 0.2874203821656051 0.27229299363057324 0.2587579617834395 0.24681528662420385 0.23646496815286625 0.2308917197452229 0.2285031847133758 0.2229299363057325 0.2093949044585988 0.19347133757961785 0.1695859872611465 0.14729299363057324 0.14251592356687898 0.13853503184713375 0.13614649681528662,0.8174097664543525 0.8163481953290871 0.8163481953290871 0.8152866242038217 0.8152866242038217 0.8142250530785563 0.8142250530785563 0.8131634819532909 0.8131634819532909 0.8131634819532909 0.8121019108280254 0.8121019108280254 0.8110403397027601 0.8110403397027601 0.8110403397027601 0.8099787685774946 0.8099787685774946 0.8099787685774946 0.8099787685774946 0.8089171974522293 0.8089171974522293 0.8067940552016986 0.8046709129511678 0.8014861995753715 0.7866242038216558 0.6008492569002123 0.4341825902335457 0.3057324840764332 0.23566878980891715 0.2133757961783439 0.20700636942675155 0.2038216560509553 0.2006369426751592 0.19320594479830144 0.1836518046709129 0.17728237791932056 0.17409766454352438 0.1698513800424628 0.16029723991507427 0.15074309978768574 0.13694267515923564 0.12314225053078555 0.11995753715498934 0.11677282377919318 0.1146496815286624,83.39999999996508 103.39999999996508 123.39999999996508 143.3999999999651 163.3999999999651 183.3999999999651 203.3999999999651 223.3999999999651 243.3999999999651 263.3999999999651 283.39999999996513 303.39999999996513 323.39999999996513 343.39999999996513 363.39999999996513 383.39999999996513 403.39999999996513 423.39999999996513 443.39999999996513 463.39999999996513 483.39999999996513 503.39999999996513 523.3999999999652 543.3999999999652 563.3999999999652 583.3999999999652 603.3999999999652 623.3999999999652 643.3999999999652 663.3999999999652 683.3999999999652 703.3999999999651 723.3999999999651 743.3999999999651 763.3999999999651 783.3999999999651 803.3999999999651 823.3999999999651 843.3999999999651 863.3999999999651 883.3999999999651 903.3999999999652 923.3999999999652 943.3999999999652 963.3999999999652
cb_03,18.0,enc_trial,stim,response,Miami trip,1010.2999999999884,enc_trial,1.0,18.0,t_s_24_2,travel_shared,fold-c,ear plugs,3.0,competing,far,paired,t_s_24_2.jpg,,travel-b1,Iceland trip,Miami trip,sub-53,1.0,1.0,0.0,0.0,0.5047770700636943 0.5047770700636943 0.5047770700636943 0.5047770700636943 0.5047770700636943 0.5039808917197452 0.5031847133757962 0.5031847133757962 0.5031847133757962 0.5031847133757962 0.5031847133757962 0.5031847133757962 0.5031847133757962 0.5039808917197452 0.5047770700636943 0.5055732484076433 0.5063694267515924 0.5079617834394905 0.5087579617834395 0.5119426751592356 0.5143312101910829 0.5199044585987261 0.5214968152866242 0.5222929936305732 0.5246815286624203 0.5302547770700637 0.5581210191082803 0.5732484076433121 0.5979299363057324 0.643312101910828 0.7165605095541401 0.8479299363057324 0.8845541401273885 0.9140127388535032 0.9339171974522292 0.9426751592356688 0.9442675159235668 0.945063694267516 0.945859872611465 0.945859872611465 0.946656050955414 0.946656050955414 0.946656050955414 0.946656050955414 0.945859872611465 0.9418789808917196 0.9227707006369428 0.9060509554140128 0.8964968152866242 0.8909235668789809 0.8869426751592356 0.8861464968152867,0.7908704883227176 0.7876857749469215 0.7866242038216558 0.7855626326963907 0.7845010615711252 0.7823779193205944 0.7770700636942676 0.7749469214437368 0.772823779193206 0.7717622080679405 0.7696390658174097 0.7664543524416136 0.7643312101910829 0.7632696390658174 0.7611464968152866 0.7600849256900213 0.7590233545647558 0.7579617834394905 0.7579617834394905 0.756900212314225 0.756900212314225 0.7558386411889597 0.7558386411889597 0.7558386411889597 0.7547770700636942 0.7515923566878981 0.7006369426751593 0.6528662420382165 0.5796178343949044 0.4904458598726114 0.3874734607218684 0.2707006369426752 0.2441613588110403 0.2144373673036093 0.19320594479830144 0.1836518046709129 0.17515923566878974 0.16772823779193202 0.16029723991507427 0.1560509554140127 0.15392781316348192 0.14649681528662414 0.1422505307855626 0.13906581740976642 0.13800424628450106 0.13694267515923564 0.13481953290870485 0.1295116772823779 0.1284501061571125 0.1273885350318471 0.1273885350318471 0.1273885350318471,0.0 20.0 40.0 60.0 80.0 100.0 120.0 140.0 160.0 180.0 200.0 220.0 240.0 260.0 280.0 300.0 320.0 340.0 360.0 380.0 400.0 420.0 440.0 460.0 480.0 500.0 520.0 540.0 560.0 580.0 600.0 620.0 640.0 660.0 680.0 700.0 720.0 740.0 760.0 780.0 800.0 820.0 840.0 860.0 880.0 900.0 920.0 940.0 960.0 980.0 1000.0 1020.0
cb_03,19.0,enc_trial,stim,response,Miami trip,963.7999999880556,enc_trial,1.0,19.0,t_s_23_2,travel_shared,fold-c,ball cap,3.0,competing,far,paired,t_s_23_2.jpg,,travel-b1,Iceland trip,Miami trip,sub-53,0.0,0.0,1.0,1.0,0.5031847133757962 0.5031847133757962 0.5039808917197452 0.5039808917197452 0.5047770700636943 0.5047770700636943 0.5055732484076433 0.5055732484076433 0.5055732484076433 0.5055732484076433 0.5063694267515924 0.5063694267515924 0.5063694267515924 0.5063694267515924 0.5079617834394905 0.5119426751592356 0.5087579617834395 0.5063694267515924 0.5071656050955414 0.5095541401273885 0.5135350318471338 0.5214968152866242 0.5214968152866242 0.5214968152866242 0.5214968152866242 0.5214968152866242 0.5214968152866242 0.5214968152866242 0.5214968152866242 0.5199044585987261 0.5199044585987261 0.5238853503184714 0.5254777070063694 0.5278662420382165 0.5342356687898089 0.5613057324840764 0.7197452229299363 0.8121019108280255 0.8805732484076433 0.9060509554140128 0.9060509554140128 0.9028662420382164 0.8996815286624203 0.8949044585987261 0.892515923566879 0.89171974522293 0.89171974522293 0.89171974522293 0.89171974522293,0.7961783439490446 0.7951167728237791 0.7951167728237791 0.7940552016985138 0.7929936305732483 0.7919320594479831 0.7898089171974523 0.7898089171974523 0.7898089171974523 0.7887473460721868 0.7876857749469215 0.7823779193205944 0.7770700636942676 0.7611464968152866 0.7197452229299364 0.6443736730360934 0.5127388535031847 0.4787685774946922 0.4649681528662421 0.4596602972399151 0.4575371549893843 0.4628450106157113 0.4628450106157113 0.4628450106157113 0.4628450106157113 0.4628450106157113 0.4628450106157113 0.4628450106157113 0.4628450106157113 0.4681528662420382 0.4734607218683652 0.4798301486199576 0.4798301486199576 0.4777070063694268 0.47027600849256895 0.4405520169851379 0.30997876857749473 0.2537154989384289 0.21656050955414008 0.2006369426751592 0.1995753715498938 0.197452229299363 0.19426751592356686 0.19002123142250527 0.1868365180467091 0.1857749469214437 0.18152866242038213 0.17940552016985134 0.17940552016985134,0.0 20.0 40.0 60.0 80.0 100.0 120.0 140.0 160.0 180.0 200.0 220.0 240.0 260.0 280.0 300.0 320.0 340.0 360.0 380.0 400.0 420.0 440.0 460.0 480.0 500.0 520.0 540.0 560.0 580.0 600.0 620.0 640.0 660.0 680.0 700.0 720.0 740.0 760.0 780.0 800.0 820.0 840.0 860.0 880.0 900.0 920.0 940.0 960.0
cb_03,20.0,enc_trial,stim,response,Iceland trip,1170.7000000238186,enc_trial,1.0,20.0,t_s_06_2,travel_shared,fold-b,luggage,3.0,competing,close,paired,t_s_06_2.jpg,,travel-b1,Iceland trip,Miami trip,sub-53,1.0,1.0,1.0,1.0,0.5055732484076433 0.5055732484076433 0.5055732484076433 0.5055732484076433 0.5055732484076433 0.5055732484076433 0.5055732484076433 0.5063694267515924 0.5063694267515924 0.5063694267515924 0.5071656050955414 0.5071656050955414 0.5071656050955414 0.5071656050955414 0.5071656050955414 0.5079617834394905 0.5095541401273885 0.5103503184713376 0.5111464968152867 0.5127388535031847 0.5135350318471338 0.5183121019108279 0.5222929936305732 0.5342356687898089 0.5557324840764332 0.6011146496815286 0.7579617834394905 0.8160828025477707 0.839968152866242 0.8431528662420382 0.8439490445859873 0.8503184713375797 0.85828025477707 0.8678343949044586 0.8686305732484076 0.8686305732484076 0.8710191082802548 0.8718152866242038 0.8742038216560509 0.8757961783439491 0.8757961783439491 0.8757961783439491 0.8757961783439491 0.8734076433121019 0.8694267515923567 0.85828025477707 0.7484076433121019 0.6337579617834395 0.5031847133757962 0.3638535031847134 0.2547770700636943 0.16162420382165604 0.1393312101910828 0.13136942675159236 0.12738853503184713 0.1265923566878981 0.1265923566878981 0.1265923566878981 0.1265923566878981,0.8152866242038217 0.8142250530785563 0.8131634819532909 0.8131634819532909 0.8121019108280254 0.8121019108280254 0.8121019108280254 0.8110403397027601 0.8099787685774946 0.8089171974522293 0.8078556263269638 0.8078556263269638 0.8067940552016986 0.805732484076433 0.805732484076433 0.805732484076433 0.8025477707006371 0.8004246284501062 0.7983014861995754 0.7961783439490446 0.7929936305732483 0.7802547770700636 0.7632696390658174 0.7059447983014862 0.6157112526539278 0.4766454352441614 0.1995753715498938 0.1571125265392781 0.14755838641188956 0.1443736730360934 0.1422505307855626 0.13163481953290868 0.1263269639065817 0.12208067940552016 0.11995753715498934 0.11995753715498934 0.11358811040339699 0.11146496815286623 0.10828025477707004 0.10509554140127386 0.10403397027600847 0.10403397027600847 0.10403397027600847 0.10509554140127386 0.10615711252653924 0.10828025477707004 0.13588110403397025 0.16242038216560506 0.18152866242038213 0.1868365180467091 0.17940552016985134 0.1581740976645435 0.15180467091295113 0.14861995753715496 0.14649681528662414 0.14649681528662414 0.14649681528662414 0.14649681528662414 0.14543524416135878,0.0 20.0 40.0 60.0 80.0 100.0 120.0 140.0 160.0 180.0 200.0 220.0 240.0 260.0 280.0 300.0 320.0 340.0 360.0 380.0 400.0 420.0 440.0 460.0 480.0 500.0 520.0 540.0 560.0 580.0 600.0 620.0 640.0 660.0 680.0 700.0 720.0 740.0 760.0 780.0 800.0 820.0 840.0 860.0 880.0 900.0 920.0 940.0 960.0 980.0 1000.0 1020.0 1040.0 1060.0 1080.0 1100.0 1120.0 1140.0 1160.0
cb_03,21.0,enc_trial,stim,response,Iceland trip,827.4999999880673,enc_trial,1.0,21.0,t_s_04_1,travel_shared,fold-c,instant camera,3.0,competing,far,paired,t_s_04_1.jpg,,travel-b1,Iceland trip,Miami trip,sub-53,1.0,1.0,1.0,1.0,0.5039808917197452 0.5047770700636943 0.5047770700636943 0.5055732484076433 0.5055732484076433 0.5063694267515924 0.5071656050955414 0.5079617834394905 0.5079617834394905 0.5087579617834395 0.5087579617834395 0.5087579617834395 0.5095541401273885 0.5095541401273885 0.5095541401273885 0.5095541401273885 0.5103503184713376 0.5103503184713376 0.5111464968152867 0.5119426751592356 0.5127388535031847 0.5191082802547771 0.5366242038216561 0.5684713375796179 0.6138535031847133 0.6592356687898089 0.6751592356687898 0.6711783439490446 0.6520700636942676 0.6003184713375797 0.5063694267515924 0.2651273885350319 0.17993630573248404 0.12818471337579618 0.10031847133757962 0.08996815286624202 0.08359872611464968 0.08359872611464968 0.08519108280254778 0.08598726114649681 0.08678343949044585 0.0875796178343949,0.832271762208068 0.8312101910828026 0.8312101910828026 0.8312101910828026 0.8301486199575372 0.826963906581741 0.8248407643312102 0.821656050955414 0.821656050955414 0.821656050955414 0.8205944798301487 0.8195329087048833 0.8184713375796179 0.8184713375796179 0.8174097664543525 0.8163481953290871 0.8152866242038217 0.8131634819532909 0.8121019108280254 0.8099787685774946 0.8046709129511678 0.7186836518046709 0.5828025477707006 0.3842887473460722 0.19108280254777066 0.0997876857749469 0.09447983014861994 0.09447983014861994 0.0987261146496815 0.10615711252653924 0.11677282377919318 0.11358811040339699 0.09447983014861994 0.08174097664543523 0.07749469214437366 0.07643312101910826 0.08067940552016982 0.08917197452229297 0.10191082802547767 0.10721868365180463 0.11040339702760082 0.11040339702760082,0.0 20.0 40.0 60.0 80.0 100.0 120.0 140.0 160.0 180.0 200.0 220.0 240.0 260.0 280.0 300.0 320.0 340.0 360.0 380.0 400.0 420.0 440.0 460.0 480.0 500.0 520.0 540.0 560.0 580.0 600.0 620.0 640.0 660.0 680.0 700.0 720.0 740.0 760.0 780.0 800.0 820.0
cb_03,22.0,enc_trial,stim,response,Iceland trip,982.2000000357511,enc_trial,1.0,22.0,t_i_13_1,travel_Iceland,fold-a,sleeping bag,3.0,unique,far,paired,t_i_13_1.jpg,Iceland,travel-b1,Iceland trip,Miami trip,sub-53,0.0,0.0,1.0,0.0,0.5175159235668789 0.5175159235668789 0.5175159235668789 0.5175159235668789 0.5175159235668789 0.5175159235668789 0.5175159235668789 0.5175159235668789 0.51671974522293 0.51671974522293 0.51671974522293 0.51671974522293 0.51671974522293 0.51671974522293 0.51671974522293 0.51671974522293 0.51671974522293 0.51671974522293 0.51671974522293 0.51671974522293 0.5159235668789809 0.5127388535031847 0.5079617834394905 0.5031847133757962 0.5007961783439491 0.5 0.4960191082802548 0.4952229299363057 0.4928343949044586 0.4848726114649681 0.4657643312101911 0.3742038216560509 0.3057324840764331 0.2388535031847133 0.17834394904458598 0.12898089171974522 0.07722929936305732 0.07245222929936307 0.07006369426751592 0.06847133757961782 0.06847133757961782 0.06449044585987261 0.06289808917197452 0.06210191082802548 0.061305732484076426 0.061305732484076426 0.061305732484076426 0.06210191082802548 0.06449044585987261 0.06528662420382167,0.8163481953290871 0.8174097664543525 0.8174097664543525 0.8174097664543525 0.8174097664543525 0.8174097664543525 0.8174097664543525 0.8174097664543525 0.8174097664543525 0.8174097664543525 0.8174097664543525 0.8174097664543525 0.8174097664543525 0.8174097664543525 0.8163481953290871 0.8163481953290871 0.8142250530785563 0.8131634819532909 0.8121019108280254 0.8099787685774946 0.8067940552016986 0.7898089171974523 0.7452229299363058 0.6380042462845009 0.4798301486199576 0.2770700636942676 0.07961783439490444 0.07430997876857748 0.07430997876857748 0.07430997876857748 0.07430997876857748 0.0721868365180467 0.06581740976645434 0.06263269639065816 0.060509554140127375 0.059447983014861976 0.0573248407643312 0.059447983014861976 0.06475583864118895 0.07324840764331209 0.08386411889596601 0.0987261146496815 0.10509554140127386 0.10934182590233543 0.11146496815286623 0.1125265392781316 0.1125265392781316 0.11358811040339699 0.1146496815286624 0.1146496815286624,0.0 20.0 40.0 60.0 80.0 100.0 120.0 140.0 160.0 180.0 200.0 220.0 240.0 260.0 280.0 300.0 320.0 340.0 360.0 380.0 400.0 420.0 440.0 460.0 480.0 500.0 520.0 540.0 560.0 580.0 600.0 620.0 640.0 660.0 680.0 700.0 720.0 740.0 760.0 780.0 800.0 820.0 840.0 860.0 880.0 900.0 920.0 940.0 960.0 980.0
cb_03,23.0,enc_trial,stim,response,Miami trip,1020.4999999880673,enc_trial,1.0,23.0,t_s_05_1,travel_shared,fold-a-single,neck pillow,3.0,competing,,single,t_s_05_1.jpg,,travel-b1,Iceland trip,Miami trip,sub-53,1.0,,1.0,,0.51671974522293 0.5159235668789809 0.5151273885350318 0.5143312101910829 0.5143312101910829 0.5135350318471338 0.5135350318471338 0.5135350318471338 0.5135350318471338 0.5135350318471338 0.5135350318471338 0.5143312101910829 0.5143312101910829 0.5143312101910829 0.5143312101910829 0.5143312101910829 0.5143312101910829 0.5143312101910829 0.5143312101910829 0.5151273885350318 0.5151273885350318 0.5199044585987261 0.5342356687898089 0.5668789808917197 0.6194267515923567 0.6926751592356688 0.8415605095541401 0.9164012738853504 0.9769108280254776 1.0039808917197452 1.0079617834394905 1.0055732484076434 1.0 0.9960191082802548 0.9952229299363056 0.9952229299363056 0.9928343949044586 0.9872611464968152 0.9737261146496816 0.9506369426751592 0.9211783439490446 0.8893312101910829 0.8853503184713376 0.8853503184713376,0.8078556263269638 0.8067940552016986 0.8046709129511678 0.8046709129511678 0.8036093418259023 0.8036093418259023 0.8036093418259023 0.8036093418259023 0.8036093418259023 0.8025477707006371 0.8025477707006371 0.8004246284501062 0.7993630573248407 0.7993630573248407 0.7983014861995754 0.7972399150743099 0.7951167728237791 0.7940552016985138 0.7929936305732483 0.7919320594479831 0.7898089171974523 0.7802547770700636 0.7600849256900213 0.7080679405520169 0.6295116772823779 0.5233545647558386 0.272823779193206 0.14861995753715496 0.08067940552016982 0.06687898089171973 0.06687898089171973 0.07006369426751591 0.07749469214437366 0.08067940552016982 0.08067940552016982 0.08067940552016982 0.08386411889596601 0.08917197452229297 0.10297239915074308 0.12420382165605093 0.14543524416135878 0.15923566878980888 0.16135881104033967 0.16135881104033967,149.29999999998842 169.29999999998842 189.29999999998842 209.29999999998842 229.29999999998842 249.29999999998842 269.2999999999884 289.29999999998836 309.29999999998836 329.29999999998836 349.2999999999884 369.2999999999884 389.2999999999884 409.2999999999884 429.2999999999884 449.2999999999884 469.2999999999884 489.2999999999884 509.2999999999884 529.2999999999884 549.2999999999884 569.2999999999884 589.2999999999884 609.2999999999884 629.2999999999884 649.2999999999884 669.2999999999884 689.2999999999884 709.2999999999884 729.2999999999884 749.2999999999884 769.2999999999884 789.2999999999884 809.2999999999884 829.2999999999884 849.2999999999884 869.2999999999884 889.2999999999884 909.2999999999884 929.2999999999884 949.2999999999884 969.2999999999884 989.2999999999884 1009.2999999999884
cb_03,24.0,enc_trial,stim,response,Iceland trip,1402.8000000238535,enc_trial,1.0,24.0,t_i_17_1,travel_Iceland,fold-e,binoculars,3.0,unique,close,paired,t_i_17_1.jpg,Iceland,travel-b1,Iceland trip,Miami trip,sub-53,1.0,1.0,0.0,0.0,0.5 0.5 0.5 0.5007961783439491 0.5007961783439491 0.5007961783439491 0.5007961783439491 0.5015923566878981 0.5015923566878981 0.5015923566878981 0.5015923566878981 0.5015923566878981 0.5015923566878981 0.5023885350318471 0.5023885350318471 0.5023885350318471 0.5031847133757962 0.5039808917197452 0.5047770700636943 0.5055732484076433 0.5087579617834395 0.5135350318471338 0.5199044585987261 0.535031847133758 0.5668789808917197 0.6035031847133758 0.6974522292993629 0.7468152866242038 0.7810509554140127 0.7961783439490446 0.803343949044586 0.8128980891719745 0.8168789808917197 0.821656050955414 0.8248407643312102 0.8264331210191083 0.8272292993630573 0.8272292993630573 0.8272292993630573 0.8272292993630573 0.8280254777070064 0.8280254777070064 0.8280254777070064 0.8320063694267515 0.839968152866242 0.8487261146496815 0.8527070063694268 0.8527070063694268 0.8527070063694268 0.8527070063694268 0.8527070063694268 0.8527070063694268 0.8527070063694268 0.8527070063694268 0.8527070063694268 0.8527070063694268 0.8527070063694268 0.8527070063694268 0.8519108280254777 0.8415605095541401 0.8025477707006371 0.5963375796178344 0.4657643312101911 0.3359872611464968 0.2452229299363057 0.19665605095541394 0.17914012738853502 0.1735668789808917 0.1664012738853503 0.160828025477707 0.15764331210191082,0.8025477707006371 0.8014861995753715 0.7993630573248407 0.7972399150743099 0.7961783439490446 0.7951167728237791 0.7919320594479831 0.7908704883227176 0.7898089171974523 0.7898089171974523 0.7887473460721868 0.7887473460721868 0.7876857749469215 0.7866242038216558 0.7866242038216558 0.7845010615711252 0.7834394904458599 0.7823779193205944 0.7813163481953291 0.7802547770700636 0.7749469214437368 0.7707006369426752 0.7622080679405521 0.7335456475583864 0.6602972399150744 0.5668789808917197 0.3110403397027601 0.2091295116772824 0.16135881104033967 0.15286624203821653 0.15286624203821653 0.15180467091295113 0.15180467091295113 0.15392781316348192 0.1549893842887473 0.1571125265392781 0.1581740976645435 0.1581740976645435 0.1581740976645435 0.1581740976645435 0.1581740976645435 0.1581740976645435 0.1581740976645435 0.1571125265392781 0.1549893842887473 0.15286624203821653 0.15074309978768574 0.15074309978768574 0.15074309978768574 0.15074309978768574 0.15074309978768574 0.15074309978768574 0.15074309978768574 0.15074309978768574 0.15074309978768574 0.15074309978768574 0.15074309978768574 0.15074309978768574 0.15074309978768574 0.14861995753715496 0.15074309978768574 0.17303609341825898 0.17622080679405516 0.17515923566878974 0.16666666666666666 0.16135881104033967 0.15923566878980888 0.1581740976645435 0.1581740976645435 0.1571125265392781 0.1571125265392781,0.0 20.0 40.0 60.0 80.0 100.0 120.0 140.0 160.0 180.0 200.0 220.0 240.0 260.0 280.0 300.0 320.0 340.0 360.0 380.0 400.0 420.0 440.0 460.0 480.0 500.0 520.0 540.0 560.0 580.0 600.0 620.0 640.0 660.0 680.0 700.0 720.0 740.0 760.0 780.0 800.0 820.0 840.0 860.0 880.0 900.0 920.0 940.0 960.0 980.0 1000.0 1020.0 1040.0 1060.0 1080.0 1100.0 1120.0 1140.0 1160.0 1180.0 1200.0 1220.0 1240.0 1260.0 1280.0 1300.0 1320.0 1340.0 1360.0 1380.0 1400.0
cb_03,25.0,enc_trial,stim,response,Miami trip,1154.5000000357395,enc_trial,1.0,25.0,t_m_01_2,travel_Miami,fold-a,sandals,3.0,unique,far,paired,t_m_01_2.jpg,Miami,travel-b1,Iceland trip,Miami trip,sub-53,1.0,1.0,1.0,1.0,0.5015923566878981 0.5015923566878981 0.5023885350318471 0.5023885350318471 0.5031847133757962 0.5039808917197452 0.5047770700636943 0.5055732484076433 0.5063694267515924 0.5063694267515924 0.5071656050955414 0.5079617834394905 0.5087579617834395 0.5087579617834395 0.5095541401273885 0.5103503184713376 0.5111464968152867 0.5119426751592356 0.5119426751592356 0.5127388535031847 0.5127388535031847 0.5127388535031847 0.5127388535031847 0.5127388535031847 0.5127388535031847 0.5127388535031847 0.5127388535031847 0.5127388535031847 0.5119426751592356 0.5095541401273885 0.4960191082802548 0.4132165605095541 0.3845541401273885 0.3980891719745223 0.4498407643312102 0.5230891719745223 0.6632165605095541 0.7109872611464968 0.7492038216560509 0.7786624203821656 0.7993630573248408 0.8113057324840764 0.8136942675159236 0.8136942675159236 0.8136942675159236 0.8152866242038217 0.8367834394904459 0.8495222929936306 0.8542993630573248 0.8542993630573248 0.8542993630573248 0.8550955414012739 0.8550955414012739,0.8121019108280254 0.8110403397027601 0.8099787685774946 0.8078556263269638 0.8067940552016986 0.8036093418259023 0.8025477707006371 0.8014861995753715 0.8004246284501062 0.7993630573248407 0.7983014861995754 0.7961783439490446 0.7940552016985138 0.7919320594479831 0.7898089171974523 0.7887473460721868 0.7855626326963907 0.7834394904458599 0.7813163481953291 0.7802547770700636 0.7791932059447984 0.7781316348195328 0.7781316348195328 0.7781316348195328 0.7781316348195328 0.7760084925690021 0.772823779193206 0.7707006369426752 0.7675159235668789 0.7622080679405521 0.7388535031847134 0.5424628450106157 0.3853503184713376 0.2335456475583864 0.1443736730360934 0.11358811040339699 0.10297239915074308 0.10615711252653924 0.11146496815286623 0.1146496815286624 0.11677282377919318 0.11677282377919318 0.1157112526539278 0.1157112526539278 0.1157112526539278 0.1146496815286624 0.1125265392781316 0.1146496815286624 0.1157112526539278 0.1157112526539278 0.1157112526539278 0.1157112526539278 0.1157112526539278,0.0 20.0 40.0 60.0 80.0 100.0 120.0 140.0 160.0 180.0 200.0 220.0 240.0 260.0 280.0 300.0 320.0 340.0 360.0 380.0 400.0 420.0 440.0 460.0 480.0 500.0 520.0 540.0 560.0 580.0 600.0 620.0 640.0 660.0 680.0 700.0 720.0 740.0 760.0 780.0 800.0 820.0 840.0 860.0 880.0 900.0 920.0 940.0 960.0 980.0 1000.0 1020.0 1040.0
cb_03,26.0,enc_trial,stim,response,Miami trip,934.2000000000696,enc_trial,1.0,26.0,t_m_18_1,travel_Miami,fold-b-single,waterproof tote,3.0,unique,,single,t_m_18_1.jpg,Miami,travel-b1,Iceland trip,Miami trip,sub-53,1.0,,1.0,,0.5063694267515924 0.5071656050955414 0.5071656050955414 0.5071656050955414 0.5071656050955414 0.5071656050955414 0.5079617834394905 0.5087579617834395 0.5095541401273885 0.5111464968152867 0.5183121019108279 0.5230891719745223 0.5318471337579618 0.5445859872611465 0.5764331210191083 0.6910828025477707 0.7691082802547771 0.8256369426751592 0.8566878980891719 0.8542993630573248 0.8535031847133758 0.8535031847133758 0.8535031847133758 0.8535031847133758 0.8535031847133758 0.8535031847133758 0.8535031847133758 0.8535031847133758 0.8535031847133758 0.8535031847133758 0.8527070063694268,0.8184713375796179 0.8174097664543525 0.8174097664543525 0.8174097664543525 0.8163481953290871 0.8163481953290871 0.8152866242038217 0.8152866242038217 0.8131634819532909 0.8110403397027601 0.8025477707006371 0.7972399150743099 0.7898089171974523 0.7781316348195328 0.743099787685775 0.589171974522293 0.4554140127388535 0.32377919320594484 0.21125265392781312 0.1549893842887473 0.13481953290870485 0.13375796178343946 0.13269639065817407 0.13269639065817407 0.13269639065817407 0.13269639065817407 0.13163481953290868 0.13163481953290868 0.13163481953290868 0.13163481953290868 0.13057324840764328,333.70000000001164 353.7000000000116 373.7000000000117 393.7000000000117 413.7000000000117 433.7000000000117 453.7000000000117 473.7000000000117 493.7000000000117 513.7000000000116 533.7000000000116 553.7000000000116 573.7000000000116 593.7000000000116 613.7000000000116 633.7000000000116 653.7000000000116 673.7000000000116 693.7000000000116 713.7000000000116 733.7000000000116 753.7000000000116 773.7000000000116 793.7000000000116 813.7000000000116 833.7000000000116 853.7000000000116 873.7000000000116 893.7000000000116 913.7000000000116 933.7000000000116
cb_03,27.0,enc_trial,stim,response,Miami trip,789.0000000119327,enc_trial,1.0,27.0,t_s_10_2,travel_shared,fold-c,luggage lock,3.0,competing,far,paired,t_s_10_2.jpg,,travel-b1,Iceland trip,Miami trip,sub-53,1.0,1.0,1.0,1.0,0.5127388535031847 0.5127388535031847 0.5127388535031847 0.5127388535031847 0.5127388535031847 0.5127388535031847 0.5127388535031847 0.5127388535031847 0.5127388535031847 0.5127388535031847 0.5135350318471338 0.5135350318471338 0.5135350318471338 0.5135350318471338 0.5135350318471338 0.5143312101910829 0.5151273885350318 0.5159235668789809 0.5175159235668789 0.5199044585987261 0.5445859872611465 0.5748407643312102 0.6130573248407644 0.6656050955414012 0.7229299363057324 0.8240445859872612 0.8439490445859873 0.8479299363057324 0.8511146496815286 0.8558917197452229 0.8606687898089171 0.8654458598726115 0.8654458598726115 0.8638535031847133 0.8622611464968153 0.8598726114649682 0.857484076433121 0.8558917197452229 0.8550955414012739,0.8312101910828026 0.8301486199575372 0.8301486199575372 0.8290870488322718 0.8280254777070064 0.826963906581741 0.826963906581741 0.826963906581741 0.826963906581741 0.826963906581741 0.8248407643312102 0.8237791932059448 0.8227176220806794 0.8227176220806794 0.8227176220806794 0.821656050955414 0.8195329087048833 0.8163481953290871 0.8121019108280254 0.805732484076433 0.7462845010615711 0.667728237791932 0.5636942675159236 0.42144373673036095 0.2866242038216561 0.1687898089171974 0.1560509554140127 0.15180467091295113 0.14649681528662414 0.13906581740976642 0.13481953290870485 0.13269639065817407 0.13375796178343946 0.13588110403397025 0.13694267515923564 0.13906581740976642 0.1411889596602972 0.1422505307855626 0.1422505307855626,0.0 20.0 40.0 60.0 80.0 100.0 120.0 140.0 160.0 180.0 200.0 220.0 240.0 260.0 280.0 300.0 320.0 340.0 360.0 380.0 400.0 420.0 440.0 460.0 480.0 500.0 520.0 540.0 560.0 580.0 600.0 620.0 640.0 660.0 680.0 700.0 720.0 740.0 760.0
cb_03,28.0,enc_trial,stim,response,Iceland trip,1169.0000000119326,enc_trial,1.0,28.0,t_i_02_1,travel_Iceland,fold-e,scarf,3.0,unique,close,paired,t_i_02_1.jpg,Iceland,travel-b1,Iceland trip,Miami trip,sub-53,1.0,1.0,1.0,1.0,0.5079617834394905 0.5127388535031847 0.5461783439490446 0.6130573248407644 0.7085987261146497 0.8773885350318471 0.9060509554140128 0.9092356687898088 0.9092356687898088 0.9092356687898088 0.9092356687898088 0.9092356687898088 0.9092356687898088 0.9092356687898088 0.910031847133758 0.913216560509554 0.9140127388535032 0.9140127388535032 0.9124203821656052 0.8996815286624203 0.8527070063694268 0.6998407643312102 0.607484076433121 0.5087579617834395 0.4148089171974522 0.2563694267515924 0.2030254777070064 0.1624203821656051 0.13853503184713375 0.12977707006369427 0.1178343949044586 0.10589171974522292 0.08678343949044585 0.07484076433121019 0.0732484076433121,0.8152866242038217 0.8078556263269638 0.7547770700636942 0.648619957537155 0.475583864118896 0.19320594479830144 0.1687898089171974 0.16454352441613584 0.16242038216560506 0.16029723991507427 0.15923566878980888 0.15923566878980888 0.15923566878980888 0.15923566878980888 0.1560509554140127 0.14968152866242035 0.14755838641188956 0.14755838641188956 0.14861995753715496 0.15180467091295113 0.16454352441613584 0.17303609341825898 0.16666666666666666 0.16348195329087045 0.16029723991507427 0.143312101910828 0.13375796178343946 0.12314225053078555 0.1146496815286624 0.11040339702760082 0.10615711252653924 0.10509554140127386 0.10403397027600847 0.10191082802547767 0.10191082802547767,483.90000000002334 503.90000000002334 523.9000000000234 543.9000000000234 563.9000000000233 583.9000000000233 603.9000000000233 623.9000000000233 643.9000000000233 663.9000000000233 683.9000000000233 703.9000000000232 723.9000000000232 743.9000000000232 763.9000000000232 783.9000000000232 803.9000000000232 823.9000000000232 843.9000000000232 863.9000000000232 883.9000000000232 903.9000000000232 923.9000000000232 943.9000000000232 963.9000000000232 983.9000000000232 1003.9000000000232 1023.9000000000232 1043.9000000000233 1063.9000000000233 1083.9000000000233 1103.9000000000233 1123.9000000000233 1143.9000000000233 1163.9000000000233
cb_03,29.0,enc_trial,stim,response,Iceland trip,1087.5000000119326,enc_trial,1.0,29.0,t_i_17_2,travel_Iceland,fold-e,binoculars,3.0,unique,close,paired,t_i_17_2.jpg,Iceland,travel-b1,Iceland trip,Miami trip,sub-53,1.0,1.0,0.0,0.0,0.4952229299363057 0.4960191082802548 0.4960191082802548 0.4968152866242038 0.4968152866242038 0.4976114649681528 0.4976114649681528 0.4976114649681528 0.4984076433121019 0.4992038216560509 0.5007961783439491 0.5007961783439491 0.5023885350318471 0.5031847133757962 0.5047770700636943 0.5087579617834395 0.5111464968152867 0.5135350318471338 0.5159235668789809 0.5191082802547771 0.5278662420382165 0.535828025477707 0.5509554140127388 0.5724522292993629 0.6035031847133758 0.7133757961783439 0.7826433121019108 0.8304140127388535 0.839968152866242 0.8391719745222929 0.8391719745222929 0.8455414012738853 0.8550955414012739 0.8614649681528662 0.8638535031847133 0.8638535031847133 0.8630573248407644 0.8614649681528662 0.8590764331210191 0.8542993630573248 0.8367834394904459 0.7348726114649682 0.6385350318471338 0.5199044585987261 0.3996815286624204 0.3049363057324841 0.19745222929936307 0.18550955414012726 0.18152866242038213 0.17834394904458598 0.1735668789808917 0.15605095541401273 0.1449044585987261 0.1393312101910828 0.1393312101910828,0.8460721868365181 0.8439490445859873 0.8428874734607219 0.8418259023354565 0.8407643312101911 0.8386411889596603 0.8365180467091295 0.8354564755838642 0.8333333333333334 0.8312101910828026 0.8237791932059448 0.8195329087048833 0.8131634819532909 0.8067940552016986 0.7993630573248407 0.7834394904458599 0.7770700636942676 0.7696390658174097 0.7611464968152866 0.7515923566878981 0.7250530785562632 0.6995753715498938 0.6592356687898089 0.6125265392781316 0.5520169851380042 0.381104033970276 0.2898089171974523 0.2314225053078556 0.21762208067940547 0.2154989384288747 0.2006369426751592 0.19426751592356686 0.19002123142250527 0.1836518046709129 0.18152866242038213 0.18152866242038213 0.1804670912951168 0.17940552016985134 0.17622080679405516 0.17409766454352438 0.16560509554140124 0.13800424628450106 0.13588110403397025 0.1411889596602972 0.13800424628450106 0.1295116772823779 0.1295116772823779 0.13163481953290868 0.13375796178343946 0.13481953290870485 0.13694267515923564 0.14012738853503182 0.14012738853503182 0.13906581740976642 0.13906581740976642,0.0 20.0 40.0 60.0 80.0 100.0 120.0 140.0 160.0 180.0 200.0 220.0 240.0 260.0 280.0 300.0 320.0 340.0 360.0 380.0 400.0 420.0 440.0 460.0 480.0 500.0 520.0 540.0 560.0 580.0 600.0 620.0 640.0 660.0 680.0 700.0 720.0 740.0 760.0 780.0 800.0 820.0 840.0 860.0 880.0 900.0 920.0 940.0 960.0 980.0 1000.0 1020.0 1040.0 1060.0 1080.0
cb_03,30.0,enc_trial,stim,response,Miami trip,1269.699999988079,enc_trial,1.0,30.0,t_s_22_1,travel_shared,fold-a-single,belt,3.0,competing,,single,t_s_22_1.jpg,,travel-b1,Iceland trip,Miami trip,sub-53,1.0,,1.0,,0.5127388535031847 0.5119426751592356 0.5111464968152867 0.5103503184713376 0.5095541401273885 0.5087579617834395 0.5087579617834395 0.5079617834394905 0.5079617834394905 0.5079617834394905 0.5079617834394905 0.5079617834394905 0.5079617834394905 0.5087579617834395 0.5095541401273885 0.5135350318471338 0.5159235668789809 0.5183121019108279 0.5199044585987261 0.5222929936305732 0.5302547770700637 0.5342356687898089 0.5382165605095541 0.5414012738853503 0.5445859872611465 0.5557324840764332 0.5628980891719745 0.5668789808917197 0.5676751592356688 0.5668789808917197 0.570859872611465 0.5804140127388535 0.5979299363057324 0.6106687898089171 0.6218152866242038 0.6512738853503185 0.6751592356687898 0.6974522292993629 0.7022292993630573 0.7046178343949044 0.7125796178343949 0.7292993630573248 0.7531847133757962 0.767515923566879 0.7746815286624203 0.7802547770700637 0.7802547770700637 0.7826433121019108 0.7993630573248408 0.8192675159235668 0.8192675159235668 0.8192675159235668 0.8192675159235668 0.8192675159235668 0.8192675159235668 0.8192675159235668 0.8192675159235668 0.8192675159235668 0.8192675159235668 0.8272292993630573 0.8487261146496815 0.8964968152866242 0.9020700636942676 0.9028662420382164,0.8174097664543525 0.8163481953290871 0.8152866242038217 0.8131634819532909 0.8110403397027601 0.8067940552016986 0.8046709129511678 0.8025477707006371 0.7993630573248407 0.7972399150743099 0.7898089171974523 0.7855626326963907 0.7802547770700636 0.7738853503184713 0.7632696390658174 0.7335456475583864 0.7229299363057324 0.7133757961783442 0.7038216560509554 0.6910828025477707 0.6634819532908705 0.648619957537155 0.634819532908705 0.6210191082802548 0.6072186836518046 0.5392781316348195 0.4766454352441614 0.4118895966029724 0.35138004246284504 0.30997876857749473 0.2717622080679406 0.2452229299363057 0.21019108280254767 0.18895966029723987 0.17728237791932056 0.1560509554140127 0.1443736730360934 0.13481953290870485 0.13269639065817407 0.1295116772823779 0.11995753715498934 0.11146496815286623 0.10297239915074308 0.0987261146496815 0.09766454352441613 0.09660297239915072 0.09660297239915072 0.0987261146496815 0.1125265392781316 0.1295116772823779 0.13588110403397025 0.13588110403397025 0.13588110403397025 0.13588110403397025 0.13588110403397025 0.13588110403397025 0.13588110403397025 0.13588110403397025 0.13588110403397025 0.13906581740976642 0.14649681528662414 0.15286624203821653 0.1549893842887473 0.1549893842887473,0.0 20.0 40.0 60.0 80.0 100.0 120.0 140.0 160.0 180.0 200.0 220.0 240.0 260.0 280.0 300.0 320.0 340.0 360.0 380.0 400.0 420.0 440.0 460.0 480.0 500.0 520.0 540.0 560.0 580.0 600.0 620.0 640.0 660.0 680.0 700.0 720.0 740.0 760.0 780.0 800.0 820.0 840.0 860.0 880.0 900.0 920.0 940.0 960.0 980.0 1000.0 1020.0 1040.0 1060.0 1080.0 1100.0 1120.0 1140.0 1160.0 1180.0 1200.0 1220.0 1240.0 1260.0
cb_03,31.0,enc_trial,stim,response,Miami trip,1173.3999999880907,enc_trial,1.0,31.0,t_s_12_1,travel_shared,fold-b,clear toiletry bag,3.0,competing,close,paired,t_s_12_1.jpg,,travel-b1,Iceland trip,Miami trip,sub-53,1.0,1.0,1.0,1.0,0.4952229299363057 0.4952229299363057 0.4960191082802548 0.4960191082802548 0.4960191082802548 0.4976114649681528 0.4984076433121019 0.4992038216560509 0.5 0.5015923566878981 0.5039808917197452 0.5047770700636943 0.5055732484076433 0.5071656050955414 0.5079617834394905 0.5087579617834395 0.5103503184713376 0.5119426751592356 0.5135350318471338 0.5143312101910829 0.5151273885350318 0.5183121019108279 0.5191082802547771 0.5207006369426752 0.5222929936305732 0.5230891719745223 0.5246815286624203 0.5254777070063694 0.5262738853503185 0.5270700636942676 0.5278662420382165 0.5294585987261147 0.5310509554140127 0.5414012738853503 0.5724522292993629 0.6297770700636943 0.8113057324840764 0.9108280254777072 0.9625796178343948 0.9856687898089171 0.9872611464968152 0.9856687898089171 0.982484076433121 0.9792993630573248 0.9745222929936306 0.9689490445859872 0.9657643312101912 0.9657643312101912 0.9633757961783442 0.9601910828025476 0.9570063694267515 0.9538216560509554 0.9514331210191084 0.9474522292993628 0.9394904458598726 0.9235668789808916 0.8789808917197452 0.8678343949044586 0.8662420382165605,0.8237791932059448 0.8227176220806794 0.8205944798301487 0.8184713375796179 0.8152866242038217 0.8089171974522293 0.805732484076433 0.8025477707006371 0.7993630573248407 0.7940552016985138 0.7855626326963907 0.7813163481953291 0.7770700636942676 0.7738853503184713 0.7717622080679405 0.7685774946921444 0.7632696390658174 0.7600849256900213 0.756900212314225 0.7537154989384289 0.7515923566878981 0.7462845010615711 0.743099787685775 0.7388535031847134 0.7367303609341826 0.7346072186836519 0.7303609341825903 0.7282377919320595 0.7261146496815287 0.7239915074309979 0.7229299363057324 0.7197452229299364 0.7165605095541401 0.6995753715498938 0.6464968152866242 0.5520169851380042 0.2898089171974523 0.1284501061571125 0.03927813163481952 0.00424628450106157 0.002123142250530785 0.002123142250530785 0.0031847133757961768 0.0063694267515923535 0.010615711252653924 0.013800424628450105 0.015923566878980888 0.015923566878980888 0.019108280254777062 0.02335456475583864 0.026539278131634814 0.03290870488322717 0.03821656050955413 0.04564755838641188 0.060509554140127375 0.0859872611464968 0.13906581740976642 0.15074309978768574 0.15180467091295113,0.0 20.0 40.0 60.0 80.0 100.0 120.0 140.0 160.0 180.0 200.0 220.0 240.0 260.0 280.0 300.0 320.0 340.0 360.0 380.0 400.0 420.0 440.0 460.0 480.0 500.0 520.0 540.0 560.0 580.0 600.0 620.0 640.0 660.0 680.0 700.0 720.0 740.0 760.0 780.0 800.0 820.0 840.0 860.0 880.0 900.0 920.0 940.0 960.0 980.0 1000.0 1020.0 1040.0 1060.0 1080.0 1100.0 1120.0 1140.0 1160.0
cb_03,32.0,enc_trial,stim,response,Miami trip,1095.199999988079,enc_trial,1.0,32.0,t_m_17_2,travel_Miami,fold-a,water gun,3.0,unique,far,paired,t_m_17_2.jpg,Miami,travel-b1,Iceland trip,Miami trip,sub-53,1.0,1.0,1.0,1.0,0.4681528662420382 0.4681528662420382 0.4681528662420382 0.4681528662420382 0.4681528662420382 0.4681528662420382 0.4681528662420382 0.4681528662420382 0.4689490445859872 0.4697452229299363 0.4721337579617834 0.4769108280254777 0.4785031847133758 0.4808917197452229 0.4832802547770701 0.4864649681528662 0.4928343949044586 0.4960191082802548 0.4984076433121019 0.5015923566878981 0.5047770700636943 0.5159235668789809 0.5246815286624203 0.5326433121019108 0.5406050955414012 0.5469745222929936 0.5557324840764332 0.5581210191082803 0.5597133757961783 0.5605095541401274 0.5613057324840764 0.5636942675159236 0.5668789808917197 0.5788216560509554 0.6106687898089171 0.660031847133758 0.7937898089171974 0.857484076433121 0.8980891719745223 0.9036624203821656 0.9036624203821656 0.8964968152866242 0.8901273885350318 0.8845541401273885 0.8813694267515924 0.8789808917197452 0.8670382165605095 0.8598726114649682 0.8550955414012739 0.8527070063694268 0.8527070063694268 0.8519108280254777 0.8479299363057324 0.8359872611464968 0.8200636942675159 0.8168789808917197,0.8078556263269638 0.8078556263269638 0.8078556263269638 0.8078556263269638 0.8078556263269638 0.8078556263269638 0.8078556263269638 0.8078556263269638 0.8078556263269638 0.8046709129511678 0.8036093418259023 0.8004246284501062 0.7993630573248407 0.7972399150743099 0.7951167728237791 0.7919320594479831 0.7834394904458599 0.7802547770700636 0.7749469214437368 0.7696390658174097 0.7632696390658174 0.7462845010615711 0.7324840764331211 0.7176220806794056 0.6974522292993629 0.6762208067940552 0.6496815286624205 0.6411889596602973 0.634819532908705 0.6295116772823779 0.6263269639065818 0.6199575371549894 0.6125265392781316 0.5934182590233545 0.5467091295116773 0.4649681528662421 0.2367303609341825 0.13375796178343946 0.07961783439490444 0.07643312101910826 0.07643312101910826 0.07749469214437366 0.07961783439490444 0.07961783439490444 0.07961783439490444 0.07961783439490444 0.09660297239915072 0.11146496815286623 0.11995753715498934 0.12420382165605093 0.12526539278131632 0.12526539278131632 0.1273885350318471 0.13057324840764328 0.13163481953290868 0.13163481953290868,0.0 20.0 40.0 60.0 80.0 100.0 120.0 140.0 160.0 180.0 200.0 220.0 240.0 260.0 280.0 300.0 320.0 340.0 360.0 380.0 400.0 420.0 440.0 460.0 480.0 500.0 520.0 540.0 560.0 580.0 600.0 620.0 640.0 660.0 680.0 700.0 720.0 740.0 760.0 780.0 800.0 820.0 840.0 860.0 880.0 900.0 920.0 940.0 960.0 980.0 1000.0 1020.0 1040.0 1060.0 1080.0 1100.0
cb_03,33.0,enc_trial,stim,response,Iceland trip,1143.9000000000233,enc_trial,1.0,33.0,t_i_02_2,travel_Iceland,fold-e,scarf,3.0,unique,close,paired,t_i_02_2.jpg,Iceland,travel-b1,Iceland trip,Miami trip,sub-53,1.0,1.0,1.0,1.0,0.5143312101910829 0.5143312101910829 0.5135350318471338 0.5135350318471338 0.5135350318471338 0.5135350318471338 0.5127388535031847 0.5127388535031847 0.5127388535031847 0.5127388535031847 0.5119426751592356 0.5119426751592356 0.5119426751592356 0.5119426751592356 0.5127388535031847 0.5135350318471338 0.5143312101910829 0.5151273885350318 0.51671974522293 0.51671974522293 0.5191082802547771 0.5199044585987261 0.5207006369426752 0.5214968152866242 0.5222929936305732 0.5230891719745223 0.5238853503184714 0.5246815286624203 0.5230891719745223 0.5238853503184714 0.5318471337579618 0.5644904458598726 0.5684713375796179 0.5557324840764332 0.535828025477707 0.5055732484076433 0.4466560509554141 0.4132165605095541 0.3710191082802548 0.3192675159235669 0.2619426751592357 0.12898089171974522 0.0875796178343949 0.06050955414012739 0.0517515923566879 0.048566878980891716 0.044585987261146494 0.042993630573248405 0.041401273885350316 0.041401273885350316 0.041401273885350316 0.04219745222929936 0.04777070063694268 0.06369426751592358 0.08678343949044585 0.10429936305732483 0.1265923566878981 0.12818471337579618,0.826963906581741 0.8259023354564756 0.8237791932059448 0.8227176220806794 0.8205944798301487 0.8184713375796179 0.8163481953290871 0.8152866242038217 0.8142250530785563 0.8131634819532909 0.8110403397027601 0.8099787685774946 0.8089171974522293 0.8078556263269638 0.8078556263269638 0.8036093418259023 0.7993630573248407 0.7961783439490446 0.7919320594479831 0.7887473460721868 0.7813163481953291 0.7760084925690021 0.7717622080679405 0.7664543524416136 0.7611464968152866 0.7558386411889597 0.7452229299363058 0.7356687898089171 0.7154989384288748 0.6772823779193207 0.6167728237791932 0.4713375796178344 0.4033970276008493 0.35350318471337583 0.32059447983014866 0.29193205944798306 0.2579617834394905 0.2473460721868365 0.2399150743099787 0.2346072186836517 0.2261146496815286 0.1985138004246284 0.1868365180467091 0.17622080679405516 0.1719745222929936 0.16772823779193202 0.15923566878980888 0.15286624203821653 0.14543524416135878 0.1411889596602972 0.1411889596602972 0.1411889596602972 0.14012738853503182 0.13800424628450106 0.13269639065817407 0.1295116772823779 0.12526539278131632 0.12526539278131632,0.0 20.0 40.0 60.0 80.0 100.0 120.0 140.0 160.0 180.0 200.0 220.0 240.0 260.0 280.0 300.0 320.0 340.0 360.0 380.0 400.0 420.0 440.0 460.0 480.0 500.0 520.0 540.0 560.0 580.0 600.0 620.0 640.0 660.0 680.0 700.0 720.0 740.0 760.0 780.0 800.0 820.0 840.0 860.0 880.0 900.0 920.0 940.0 960.0 980.0 1000.0 1020.0 1040.0 1060.0 1080.0 1100.0 1120.0 1140.0
cb_03,34.0,enc_trial,stim,response,Iceland trip,1332.7999999880558,enc_trial,1.0,34.0,t_s_12_2,travel_shared,fold-b,clear toiletry bag,3.0,competing,close,paired,t_s_12_2.jpg,,travel-b1,Iceland trip,Miami trip,sub-53,1.0,1.0,1.0,1.0,0.4984076433121019 0.4984076433121019 0.4984076433121019 0.4984076433121019 0.4992038216560509 0.4992038216560509 0.4992038216560509 0.4992038216560509 0.5 0.5015923566878981 0.5039808917197452 0.5055732484076433 0.5087579617834395 0.5119426751592356 0.5143312101910829 0.5175159235668789 0.5286624203821656 0.5493630573248408 0.5684713375796179 0.5772292993630573 0.5740445859872612 0.5668789808917197 0.5668789808917197 0.5668789808917197 0.5668789808917197 0.5668789808917197 0.5668789808917197 0.5668789808917197 0.5668789808917197 0.5668789808917197 0.5668789808917197 0.5668789808917197 0.5668789808917197 0.5668789808917197 0.5740445859872612 0.6321656050955414 0.6894904458598726 0.75 0.7937898089171974 0.8232484076433121 0.8351910828025477 0.8415605095541401 0.8415605095541401 0.8415605095541401 0.8343949044585988 0.7237261146496815 0.6242038216560509 0.5055732484076433 0.3964968152866242 0.3081210191082803 0.2507961783439491 0.25 0.25 0.25 0.25 0.25 0.25 0.2484076433121019 0.24681528662420385 0.2444267515923567 0.2412420382165605 0.2125796178343949 0.17754777070063693 0.1393312101910828 0.10748407643312102 0.09235668789808917 0.08598726114649681,0.851380042462845 0.8503184713375797 0.8503184713375797 0.8481953290870489 0.8460721868365181 0.8439490445859873 0.8418259023354565 0.8386411889596603 0.8333333333333334 0.8280254777070064 0.8121019108280254 0.8014861995753715 0.7845010615711252 0.7590233545647558 0.7154989384288748 0.5732484076433121 0.4861995753715499 0.3683651804670913 0.2452229299363057 0.16242038216560506 0.1422505307855626 0.14755838641188956 0.14755838641188956 0.14755838641188956 0.14755838641188956 0.14755838641188956 0.14755838641188956 0.14755838641188956 0.14755838641188956 0.14755838641188956 0.14755838641188956 0.14755838641188956 0.14755838641188956 0.14755838641188956 0.14861995753715496 0.143312101910828 0.13481953290870485 0.1273885350318471 0.1263269639065817 0.1263269639065817 0.1263269639065817 0.12526539278131632 0.12526539278131632 0.12526539278131632 0.12420382165605093 0.13163481953290868 0.13800424628450106 0.143312101910828 0.14543524416135878 0.1443736730360934 0.1443736730360934 0.1443736730360934 0.1443736730360934 0.1443736730360934 0.1443736730360934 0.1443736730360934 0.1443736730360934 0.1443736730360934 0.1443736730360934 0.143312101910828 0.143312101910828 0.1422505307855626 0.13906581740976642 0.13906581740976642 0.1422505307855626 0.143312101910828 0.143312101910828,0.0 20.0 40.0 60.0 80.0 100.0 120.0 140.0 160.0 180.0 200.0 220.0 240.0 260.0 280.0 300.0 320.0 340.0 360.0 380.0 400.0 420.0 440.0 460.0 480.0 500.0 520.0 540.0 560.0 580.0 600.0 620.0 640.0 660.0 680.0 700.0 720.0 740.0 760.0 780.0 800.0 820.0 840.0 860.0 880.0 900.0 920.0 940.0 960.0 980.0 1000.0 1020.0 1040.0 1060.0 1080.0 1100.0 1120.0 1140.0 1160.0 1180.0 1200.0 1220.0 1240.0 1260.0 1280.0 1300.0 1320.0
cb_03,35.0,enc_trial,stim,response,Miami trip,1000.7999999999304,enc_trial,1.0,35.0,t_i_13_2,travel_Iceland,fold-a,sleeping bag,3.0,unique,far,paired,t_i_13_2.jpg,Iceland,travel-b1,Iceland trip,Miami trip,sub-53,0.0,0.0,1.0,0.0,0.5254777070063694 0.5254777070063694 0.5254777070063694 0.5254777070063694 0.5254777070063694 0.5246815286624203 0.5238853503184714 0.5238853503184714 0.5238853503184714 0.5238853503184714 0.5238853503184714 0.5238853503184714 0.5238853503184714 0.5238853503184714 0.5238853503184714 0.5238853503184714 0.5262738853503185 0.5278662420382165 0.5294585987261147 0.5310509554140127 0.5326433121019108 0.5374203821656051 0.5390127388535032 0.5406050955414012 0.5421974522292994 0.5437898089171974 0.5477707006369427 0.5477707006369427 0.5477707006369427 0.5469745222929936 0.5461783439490446 0.5501592356687898 0.5549363057324841 0.5724522292993629 0.6146496815286624 0.6863057324840764 0.8288216560509554 0.89171974522293 0.9195859872611464 0.9243630573248408 0.9243630573248408 0.9227707006369428 0.9211783439490446 0.9203821656050956 0.9187898089171974 0.913216560509554 0.89171974522293 0.8829617834394905 0.8765923566878981 0.8702229299363057 0.8670382165605095,0.8524416135881104 0.8524416135881104 0.8524416135881104 0.8524416135881104 0.851380042462845 0.8492569002123143 0.8450106157112527 0.8439490445859873 0.8428874734607219 0.8418259023354565 0.8418259023354565 0.8407643312101911 0.8397027600849257 0.8375796178343949 0.8343949044585988 0.8280254777070064 0.8121019108280254 0.7993630573248407 0.7887473460721868 0.7770700636942676 0.7685774946921444 0.7484076433121019 0.7399150743099787 0.7314225053078556 0.7250530785562632 0.7176220806794056 0.7059447983014862 0.7006369426751593 0.6953290870488322 0.6900212314225054 0.6794055201698515 0.634819532908705 0.6008492569002123 0.5456475583864119 0.4660297239915074 0.3662420382165605 0.21656050955414008 0.17409766454352438 0.16242038216560506 0.16029723991507427 0.16029723991507427 0.16029723991507427 0.16135881104033967 0.16135881104033967 0.16135881104033967 0.16348195329087045 0.1698513800424628 0.1709129511677282 0.1709129511677282 0.1709129511677282 0.1709129511677282,0.0 20.0 40.0 60.0 80.0 100.0 120.0 140.0 160.0 180.0 200.0 220.0 240.0 260.0 280.0 300.0 320.0 340.0 360.0 380.0 400.0 420.0 440.0 460.0 480.0 500.0 520.0 540.0 560.0 580.0 600.0 620.0 640.0 660.0 680.0 700.0 720.0 740.0 760.0 780.0 800.0 820.0 840.0 860.0 880.0 900.0 920.0 940.0 960.0 980.0 1000.0
