Current Spreadsheet,Trial Number,Display,Screen,Response Type,Response,Reaction Time,display,block,block_trial,stimulus_id,expected_goal,fold,stimulus_name,c_group,condition,within_block_dist,paired_status,stimulus_path,expected_location,block_split,respStim_1,respStim_2,sub_label,acc,both_enc_acc,assoc_stim1_acc,assoc_stim2_acc,x_pos,y_pos,time_trajectories
cb_08,1.0,enc_trial,stim,response,STEM students,2331.6000000000063,enc_trial,1.0,1.0,s_s_11_1,student_stem,fold-d,scientific scale,8.0,unique,close,paired,s_s_11_1.jpg,stem,student-b1,STEM students,Fine Arts students,sub-47,1.0,1.0,1.0,1.0,0.5222057735011103 0.5222057735011103 0.5222057735011103 0.5222057735011103 0.5222057735011103 0.5222057735011103 0.5222057735011103 0.5222057735011103 0.5222057735011103 0.5222057735011103 0.5222057735011103 0.5222057735011103 0.5222057735011103 0.5222057735011103 0.5222057735011103 0.5222057735011103 0.5222057735011103 0.5222057735011103 0.5222057735011103 0.5222057735011103 0.5222057735011103 0.5222057735011103 0.5222057735011103 0.5222057735011103 0.5222057735011103 0.5222057735011103 0.5222057735011103 0.5222057735011103 0.518319763138416 0.5072168763878608 0.4944485566247224 0.4711324944485567 0.44559585492227977 0.4128423390081421 0.38341968911917096 0.3440044411547002 0.3195780903034789 0.2923760177646188 0.2729459659511473 0.2512953367875648 0.2363064396743153 0.21354552183567727 0.1991117690599556 0.17690599555884529 0.16469282013323466 0.1469282013323464 0.13471502590673573 0.12583271650629166 0.12583271650629166 0.13749074759437452 0.13804589193190228 0.13804589193190228 0.13804589193190228 0.13804589193190228 0.13804589193190228 0.13804589193190228 0.13804589193190228 0.13804589193190228 0.13804589193190228 0.13804589193190228 0.13971132494448554 0.15247964470762396 0.16413767579570687 0.17468541820873426 0.18301258327165065 0.2013323464100666 0.2196521095484826 0.2440784603997039 0.2585122131754256 0.2696150999259808 0.2768319763138416 0.28737971872686896 0.2951517394522576 0.3023686158401184 0.3045891931902295 0.3045891931902295 0.3045891931902295 0.3045891931902295 0.3068097705403405 0.3212435233160621 0.3378978534418949 0.3639896373056995 0.3895262768319763 0.4306069578090304 0.4522575869726129 0.4572538860103627 0.4561435973353072 0.4489267209474464 0.4311621021465581 0.3895262768319763 0.3390081421169504 0.2651739452257587 0.2196521095484826 0.17857142857142855 0.16025166543301256 0.1402664692820133 0.12694300518134713 0.11528497409326426 0.11417468541820873 0.11417468541820873 0.11417468541820873 0.11139896373056993 0.10473723168023684 0.10196150999259808 0.10196150999259808 0.10418208734270908 0.10640266469282013 0.1080680977054034 0.10973353071798668 0.11361954108068095 0.1169504071058475 0.1208364174685418 0.12305699481865286 0.12416728349370836,0.8201332346410066 0.8201332346410066 0.8201332346410066 0.8201332346410066 0.8201332346410066 0.8201332346410066 0.8201332346410066 0.8201332346410066 0.8201332346410066 0.8201332346410066 0.8201332346410066 0.8201332346410066 0.8201332346410066 0.8201332346410066 0.8201332346410066 0.8201332346410066 0.8201332346410066 0.8201332346410066 0.8201332346410066 0.8201332346410066 0.8201332346410066 0.8201332346410066 0.8201332346410066 0.8201332346410066 0.8201332346410066 0.8201332346410066 0.8201332346410066 0.8201332346410066 0.8164322723908216 0.8082901554404145 0.8001480384900074 0.7860843819393042 0.767579570688379 0.7342709104367136 0.6980014803849001 0.6424870466321244 0.6010362694300518 0.5418208734270911 0.4922279792746114 0.4167283493708365 0.3560325684678016 0.2738712065136936 0.21539600296076966 0.13915618060695778 0.10066617320503336 0.06439674315321986 0.04663212435233166 0.035529237601776516 0.033308660251665456 0.03404885270170244 0.03404885270170244 0.03404885270170244 0.03404885270170244 0.03404885270170244 0.03404885270170244 0.03404885270170244 0.03404885270170244 0.03404885270170244 0.03404885270170244 0.03404885270170244 0.03700962250185047 0.04441154700222062 0.0488527017024426 0.05329385640266472 0.0577350111028867 0.06439674315321986 0.07031828275351593 0.07846039970392303 0.08438193930421911 0.09252405625462624 0.09918578830495928 0.11028867505551444 0.11769059955588455 0.1250925240562546 0.12731310140636565 0.12731310140636565 0.12731310140636565 0.12731310140636565 0.1295336787564767 0.13619541080680975 0.14063656550703185 0.1472982975573649 0.14877868245743894 0.151739452257587 0.15544041450777202 0.15766099185788307 0.15766099185788307 0.15840118430792005 0.15544041450777202 0.15544041450777202 0.15470022205773504 0.15321983715766094 0.14803849000740188 0.13545521835677274 0.1250925240562546 0.11695040710584748 0.11250925240562548 0.11028867505551444 0.11028867505551444 0.11028867505551444 0.11028867505551444 0.1117690599555885 0.11547002220577353 0.11695040710584748 0.11695040710584748 0.11991117690599552 0.12213175425610655 0.1243523316062176 0.1258327165062917 0.13101406365655066 0.1347150259067358 0.13989637305699487 0.1428571428571429 0.14433752775721687,34.30000000000291 54.30000000000291 74.30000000000291 94.30000000000292 114.30000000000292 134.3000000000029 154.3000000000029 174.3000000000029 194.3000000000029 214.3000000000029 234.3000000000029 254.3000000000029 274.3000000000029 294.30000000000285 314.30000000000285 334.30000000000285 354.3000000000029 374.3000000000029 394.3000000000029 414.3000000000029 434.3000000000029 454.3000000000029 474.3000000000029 494.3000000000029 514.3000000000029 534.3000000000029 554.3000000000029 574.3000000000029 594.3000000000029 614.3000000000029 634.3000000000029 654.3000000000029 674.3000000000029 694.3000000000029 714.3000000000029 734.3000000000029 754.3000000000029 774.3000000000029 794.3000000000029 814.3000000000029 834.3000000000029 854.3000000000029 874.3000000000029 894.3000000000029 914.3000000000028 934.3000000000028 954.3000000000028 974.3000000000028 994.3000000000028 1014.3000000000028 1034.3000000000031 1054.3000000000031 1074.3000000000031 1094.3000000000031 1114.3000000000031 1134.3000000000031 1154.3000000000031 1174.3000000000031 1194.3000000000031 1214.3000000000031 1234.3000000000031 1254.3000000000031 1274.3000000000031 1294.3000000000031 1314.3000000000031 1334.3000000000031 1354.3000000000031 1374.3000000000031 1394.3000000000031 1414.3000000000031 1434.3000000000031 1454.3000000000031 1474.3000000000031 1494.3000000000031 1514.3000000000031 1534.3000000000031 1554.3000000000031 1574.3000000000031 1594.3000000000031 1614.3000000000031 1634.3000000000031 1654.3000000000031 1674.3000000000031 1694.3000000000031 1714.3000000000031 1734.3000000000031 1754.3000000000031 1774.3000000000031 1794.3000000000031 1814.3000000000031 1834.3000000000031 1854.3000000000031 1874.3000000000031 1894.3000000000031 1914.3000000000031 1934.3000000000031 1954.3000000000031 1974.3000000000031 1994.3000000000031 2014.3000000000031 2034.3000000000031 2054.300000000003 2074.300000000003 2094.300000000003 2114.300000000003 2134.300000000003 2154.300000000003 2174.300000000003 2194.300000000003 2214.300000000003 2234.300000000003 2254.300000000003 2274.300000000003 2294.300000000003
cb_08,2.0,enc_trial,stim,response,STEM students,1535.4999999046267,enc_trial,1.0,2.0,s_s_15_1,student_stem,fold-c,jumper cables,8.0,unique,far,paired,s_s_15_1.jpg,stem,student-b1,STEM students,Fine Arts students,sub-47,1.0,1.0,1.0,1.0,0.4950037009622502 0.4950037009622502 0.495558845299778 0.4972242783123612 0.4994448556624722 0.5044411547002221 0.5094374537379719 0.5149888971132495 0.518319763138416 0.5188749074759438 0.5199851961509993 0.5210954848260547 0.5222057735011103 0.5222057735011103 0.5222057735011103 0.5222057735011103 0.5222057735011103 0.5222057735011103 0.5222057735011103 0.5222057735011103 0.5222057735011103 0.5222057735011103 0.5222057735011103 0.5222057735011103 0.5222057735011103 0.5222057735011103 0.5222057735011103 0.5222057735011103 0.5222057735011103 0.5222057735011103 0.5222057735011103 0.5222057735011103 0.5222057735011103 0.5177646188008882 0.5005551443375278 0.4777942264988897 0.4411547002220577 0.4078460399703923 0.3684307920059216 0.30903034789045153 0.2646188008882309 0.21632124352331605 0.1896743153219837 0.17079940784603995 0.16580310880829013 0.1635825314581791 0.16136195410806808 0.1558105107327905 0.14748334566987414 0.13304959289415247 0.12694300518134713 0.12416728349370836 0.12194670614359733 0.11806069578090304 0.11806069578090304 0.11806069578090304 0.11750555144337528 0.1169504071058475 0.1169504071058475,0.8134715025906736 0.8119911176905996 0.8031088082901554 0.7920059215396003 0.7838638045891932 0.7727609178386381 0.7638786084381939 0.7586972612879348 0.7564766839378239 0.7564766839378239 0.7557364914877869 0.7549962990377498 0.7549962990377498 0.7549962990377498 0.7549962990377498 0.7549962990377498 0.7549962990377498 0.7549962990377498 0.7549962990377498 0.7549962990377498 0.7557364914877869 0.7557364914877869 0.7557364914877869 0.7557364914877869 0.7557364914877869 0.7557364914877869 0.7557364914877869 0.7557364914877869 0.7557364914877869 0.7557364914877869 0.7557364914877869 0.7557364914877869 0.7557364914877869 0.7498149518874908 0.7305699481865284 0.7039230199851961 0.6602516654330126 0.6195410806809771 0.5721687638786084 0.5033308660251665 0.4492968171724648 0.3893412287194671 0.3501110288675056 0.308660251665433 0.2886750555144337 0.2716506291635825 0.2583271650629163 0.2361213915618061 0.21983715766099188 0.19467061435973354 0.18134715025906734 0.17542561065877127 0.1695040710584752 0.15914137675795706 0.15766099185788307 0.15766099185788307 0.15766099185788307 0.156180606957809 0.15470022205773504,343.0 363.0 383.0 403.0 423.0 443.0 463.0 483.0 503.0 523.0 543.0 563.0 583.0 603.0 623.0 643.0 663.0 683.0 703.0 723.0 743.0 763.0 783.0 803.0 823.0 843.0 863.0 883.0 903.0 923.0 943.0 963.0 983.0 1003.0 1023.0 1043.0 1063.0 1083.0 1103.0 1123.0 1143.0 1163.0 1183.0 1203.0 1223.0 1243.0 1263.0 1283.0 1303.0 1323.0 1343.0 1363.0 1383.0 1403.0 1423.0 1443.0 1463.0 1483.0 1503.0
cb_08,3.0,enc_trial,stim,response,STEM students,2309.1000000000063,enc_trial,1.0,3.0,s_sh_24_1,student_shared,fold-b-single,desk organizer,8.0,competing,,single,s_sh_24_1.jpg,,student-b1,STEM students,Fine Arts students,sub-47,1.0,,1.0,,0.5099925980754997 0.5099925980754997 0.5099925980754997 0.5105477424130274 0.5105477424130274 0.5105477424130274 0.5083271650629163 0.5066617320503329 0.5094374537379719 0.5127683197631384 0.5144337527757217 0.5144337527757217 0.5144337527757217 0.5144337527757217 0.5149888971132495 0.5160991857883049 0.5177646188008882 0.518319763138416 0.518319763138416 0.5188749074759438 0.5188749074759438 0.5188749074759438 0.5188749074759438 0.5188749074759438 0.5188749074759438 0.5188749074759438 0.5188749074759438 0.5188749074759438 0.5188749074759438 0.5188749074759438 0.5188749074759438 0.5188749074759438 0.5188749074759438 0.5216506291635825 0.5238712065136936 0.524981495188749 0.5238712065136936 0.5194300518134715 0.5166543301258327 0.5149888971132495 0.5149888971132495 0.5149888971132495 0.5149888971132495 0.5149888971132495 0.5149888971132495 0.5149888971132495 0.5149888971132495 0.5149888971132495 0.5149888971132495 0.5127683197631384 0.5049962990377498 0.4905625462620281 0.4805699481865285 0.4689119170984456 0.4666913397483346 0.4822353811991118 0.5144337527757217 0.5716136195410806 0.6126943005181347 0.6654330125832716 0.7048482605477424 0.7492598075499629 0.7681347150259067 0.7753515914137675 0.7742413027387121 0.7692450037009622 0.7692450037009622 0.7731310140636565 0.7747964470762397 0.772020725388601 0.7548112509252405 0.7092894152479644 0.6743153219837157 0.6487786824574389 0.6465581051073278 0.6460029607698001 0.6410066617320502 0.6182457438934122 0.6043671354552183 0.5888230940044411 0.5771650629163582 0.5705033308660251 0.5705033308660251 0.5727239082161362 0.5732790525536638 0.5705033308660251 0.5682827535159142 0.5655070318282753 0.5632864544781643 0.5510732790525537 0.5227609178386381 0.4727979274611399 0.4517024426350851 0.4394892672094745 0.4294966691339748 0.40451517394522574 0.3517764618800888 0.2335307179866765 0.15470022205773498 0.11084381939304218 0.1169504071058475 0.12694300518134713 0.12694300518134713 0.11972612879348628 0.11528497409326426 0.11195410806809768 0.11028867505551444 0.11028867505551444 0.11028867505551444,0.8630643967431533 0.8623242042931162 0.8556624722427831 0.8423390081421169 0.8142116950407106 0.7816432272390822 0.7335307179866766 0.7024426350851221 0.6794966691339748 0.6735751295336787 0.6720947446336047 0.6720947446336047 0.6720947446336047 0.6720947446336047 0.6720947446336047 0.6735751295336787 0.6743153219837157 0.6750555144337528 0.6750555144337528 0.6765358993338269 0.6765358993338269 0.6765358993338269 0.6765358993338269 0.6765358993338269 0.6765358993338269 0.6765358993338269 0.6765358993338269 0.6765358993338269 0.6765358993338269 0.6772760917838638 0.6772760917838638 0.6772760917838638 0.6772760917838638 0.6861584011843079 0.6965210954848261 0.7209474463360473 0.7379718726868986 0.7594374537379719 0.7705403404885269 0.7779422649888972 0.7794226498889711 0.7794226498889711 0.7794226498889711 0.7794226498889711 0.7794226498889711 0.7794226498889711 0.7794226498889711 0.7794226498889711 0.7794226498889711 0.7764618800888231 0.765358993338268 0.7424130273871207 0.7202072538860104 0.6757957068837898 0.6387860843819393 0.5736491487786824 0.5166543301258327 0.4589193190229459 0.42561065877128057 0.3656550703182827 0.3160621761658031 0.2716506291635825 0.2583271650629163 0.2531458179126573 0.2546262028127313 0.2598075499629904 0.2590673575129534 0.25240562546262024 0.2494448556624722 0.2501850481125093 0.2583271650629163 0.26943005181347146 0.27091043671354553 0.2664692820133234 0.26572908956328645 0.2768319763138416 0.29681717246484085 0.32272390821613617 0.32420429311621024 0.3131014063656551 0.2923760177646189 0.2420429311621021 0.20799407846039966 0.18578830495928944 0.1835677276091784 0.1850481125092525 0.1872686898593634 0.19467061435973354 0.20651369356032567 0.2450037009622502 0.2827535159141377 0.3234641006661733 0.3301258327165063 0.3271650629163583 0.3153219837157661 0.2938564026646928 0.28719467061435977 0.2864544781643227 0.2716506291635825 0.2427831236121392 0.23019985196150994 0.22205773501110293 0.22057735011102889 0.2176165803108808 0.21539600296076966 0.21095484826054767 0.20429311621021465 0.19985196150999265 0.19837157660991853,148.69999999998254 168.69999999998254 188.69999999998254 208.69999999998254 228.69999999998254 248.69999999998254 268.69999999998254 288.6999999999825 308.6999999999825 328.6999999999825 348.69999999998254 368.69999999998254 388.69999999998254 408.69999999998254 428.69999999998254 448.69999999998254 468.69999999998254 488.69999999998254 508.69999999998254 528.6999999999825 548.6999999999825 568.6999999999825 588.6999999999825 608.6999999999825 628.6999999999825 648.6999999999825 668.6999999999825 688.6999999999824 708.6999999999824 728.6999999999824 748.6999999999824 768.6999999999824 788.6999999999824 808.6999999999824 828.6999999999824 848.6999999999824 868.6999999999824 888.6999999999824 908.6999999999823 928.6999999999823 948.6999999999823 968.6999999999823 988.6999999999823 1008.6999999999823 1028.6999999999823 1048.6999999999823 1068.6999999999823 1088.6999999999823 1108.6999999999823 1128.6999999999825 1148.6999999999825 1168.6999999999825 1188.6999999999825 1208.6999999999825 1228.6999999999825 1248.6999999999825 1268.6999999999825 1288.6999999999825 1308.6999999999825 1328.6999999999825 1348.6999999999825 1368.6999999999825 1388.6999999999825 1408.6999999999825 1428.6999999999825 1448.6999999999825 1468.6999999999825 1488.6999999999825 1508.6999999999825 1528.6999999999825 1548.6999999999825 1568.6999999999825 1588.6999999999825 1608.6999999999825 1628.6999999999825 1648.6999999999825 1668.6999999999825 1688.6999999999825 1708.6999999999825 1728.6999999999825 1748.6999999999825 1768.6999999999825 1788.6999999999825 1808.6999999999825 1828.6999999999825 1848.6999999999825 1868.6999999999825 1888.6999999999825 1908.6999999999825 1928.6999999999825 1948.6999999999825 1968.6999999999825 1988.6999999999825 2008.6999999999825 2028.6999999999825 2048.6999999999825 2068.6999999999825 2088.6999999999825 2108.6999999999825 2128.6999999999825 2148.6999999999825 2168.6999999999825 2188.6999999999825 2208.6999999999825 2228.6999999999825 2248.6999999999825 2268.6999999999825 2288.6999999999825 2308.6999999999825
cb_08,4.0,enc_trial,stim,response,Fine Arts students,1566.3000000000175,enc_trial,1.0,4.0,s_sh_19_1,student_shared,fold-a,portable plastic drawer,8.0,competing,close,paired,s_sh_19_1.jpg,,student-b1,STEM students,Fine Arts students,sub-47,1.0,1.0,1.0,0.0,0.5077720207253886 0.5066617320503329 0.5 0.4900074019245004 0.4650259067357513 0.4411547002220577 0.4078460399703923 0.38341968911917096 0.34955588452997777 0.3240192450037009 0.28793486306439675 0.2601776461880089 0.21743153219837155 0.1835677276091784 0.14637305699481865 0.12638786084381934 0.11417468541820873 0.1130643967431532 0.11139896373056993 0.11139896373056993 0.11972612879348628 0.1352701702442635 0.16857883049592892 0.211880088823094 0.30292376017764616 0.3512213175425611 0.4672464840858623 0.5488527017024426 0.6476683937823834 0.7026276831976314 0.7487046632124352 0.7653589933382678 0.7792376017764618 0.7853441894892672 0.7864544781643227 0.7864544781643227 0.7864544781643227 0.7903404885270171 0.7986676535899333 0.8042190969652109 0.8058845299777941 0.8286454478164322 0.8575129533678756 0.8880458919319022 0.8963730569948186 0.8958179126572908 0.8952627683197631,0.8149518874907475 0.8134715025906736 0.8031088082901554 0.7883049592894152 0.7549962990377498 0.7224278312361214 0.6595114729829756 0.5980754996299038 0.5018504811250926 0.4293116210214656 0.3449296817172465 0.2953367875647669 0.2509252405625463 0.23019985196150994 0.21613619541080686 0.20799407846039966 0.20207253886010368 0.19985196150999265 0.19837157660991853 0.1976313841598816 0.2013323464100666 0.2094744633604737 0.2183567727609178 0.21983715766099188 0.20355292376017764 0.19467061435973354 0.1783863804589193 0.16802368615840113 0.15988156920799412 0.15840118430792005 0.15840118430792005 0.15766099185788307 0.15544041450777202 0.15470022205773504 0.15470022205773504 0.15544041450777202 0.15544041450777202 0.15470022205773504 0.15247964470762398 0.15025906735751293 0.14877868245743894 0.14063656550703185 0.13767579570688382 0.13767579570688382 0.13989637305699487 0.13989637305699487 0.14137675795706886,485.8999999999942 505.8999999999942 525.8999999999942 545.8999999999942 565.8999999999943 585.8999999999943 605.8999999999943 625.8999999999943 645.8999999999943 665.8999999999943 685.8999999999943 705.8999999999942 725.8999999999942 745.8999999999942 765.8999999999942 785.8999999999942 805.8999999999942 825.8999999999942 845.8999999999942 865.8999999999942 885.8999999999942 905.8999999999942 925.8999999999942 945.8999999999942 965.8999999999942 985.8999999999942 1005.8999999999942 1025.8999999999942 1045.8999999999942 1065.8999999999942 1085.8999999999942 1105.8999999999942 1125.8999999999942 1145.8999999999942 1165.8999999999942 1185.8999999999942 1205.8999999999942 1225.8999999999942 1245.8999999999942 1265.8999999999942 1285.8999999999942 1305.8999999999942 1325.8999999999942 1345.8999999999942 1365.8999999999942 1385.8999999999942 1405.8999999999942
cb_08,5.0,enc_trial,stim,response,Fine Arts students,1828.1000000000056,enc_trial,1.0,5.0,s_sh_12_1,student_shared,fold-b-single,binder,8.0,competing,,single,s_sh_12_1.jpg,,student-b1,STEM students,Fine Arts students,sub-47,1.0,,1.0,,0.4855662472242783 0.4861213915618061 0.4861213915618061 0.4861213915618061 0.4861213915618061 0.4861213915618061 0.4861213915618061 0.4866765358993338 0.4894522575869726 0.4966691339748335 0.5049962990377498 0.5188749074759438 0.5283123612139157 0.536639526276832 0.5371946706143598 0.5371946706143598 0.5371946706143598 0.5371946706143598 0.5371946706143598 0.5371946706143598 0.5371946706143598 0.5371946706143598 0.5371946706143598 0.5371946706143598 0.5371946706143598 0.5371946706143598 0.5371946706143598 0.5371946706143598 0.5371946706143598 0.5371946706143598 0.5371946706143598 0.5371946706143598 0.5371946706143598 0.5371946706143598 0.536639526276832 0.5360843819393042 0.5349740932642487 0.5338638045891932 0.5333086602516655 0.5333086602516655 0.5333086602516655 0.5277572168763879 0.5099925980754997 0.4827905255366395 0.4566987416728349 0.4178386380458921 0.3889711324944485 0.3589933382679497 0.3517764618800888 0.3545521835677276 0.3634344929681717 0.38341968911917096 0.40451517394522574 0.4417098445595855 0.4716876387860844 0.5127683197631384 0.5466321243523317 0.5682827535159142 0.5754996299037749 0.6076980014803849 0.6437823834196891 0.6776461880088822 0.6843079200592154 0.6787564766839378 0.6609918578830495 0.634900074019245 0.6188008882309399 0.5893782383419689 0.5621761658031088 0.5449666913397483 0.5532938564026647 0.6065877128053293 0.673760177646188 0.7492598075499629 0.7825684678016284 0.8014433752775721 0.8092153960029608 0.8214285714285714 0.8286454478164322 0.8308660251665433 0.8308660251665433 0.8308660251665433 0.8308660251665433 0.8308660251665433 0.8308660251665433 0.8330866025166542 0.8369726128793485 0.8380829015544041,0.8556624722427831 0.8556624722427831 0.8556624722427831 0.8556624722427831 0.8556624722427831 0.8556624722427831 0.8556624722427831 0.8534418948926721 0.84159881569208 0.8142116950407106 0.7853441894892672 0.7453737971872687 0.7202072538860104 0.6980014803849001 0.6928201332346411 0.692079940784604 0.692079940784604 0.692079940784604 0.692079940784604 0.692079940784604 0.692079940784604 0.6928201332346411 0.6928201332346411 0.6928201332346411 0.6928201332346411 0.6928201332346411 0.6935603256846781 0.6935603256846781 0.6943005181347149 0.695780903034789 0.6972612879348631 0.6980014803849001 0.6994818652849741 0.7017024426350851 0.7039230199851961 0.7091043671354552 0.7128053293856402 0.7165062916358254 0.7165062916358254 0.7165062916358254 0.7165062916358254 0.7128053293856402 0.7024426350851221 0.6868985936343449 0.6691339748334567 0.6336047372316802 0.5891931902294596 0.5099925980754996 0.461139896373057 0.4418948926720947 0.4492968171724648 0.4803849000740192 0.5099925980754996 0.5507031828275352 0.5573649148778683 0.5210954848260547 0.4737231680236862 0.4174685418208735 0.3656550703182827 0.2760917838638046 0.231680236861584 0.2176165803108808 0.2190969652109549 0.23464100666173204 0.25610658771280537 0.2738712065136936 0.2908956328645448 0.3360473723168024 0.38119911176906 0.4211695040710585 0.43005181347150256 0.39896373056994816 0.3449296817172465 0.2923760177646189 0.2627683197631384 0.22501850481125096 0.18874907475943747 0.151739452257587 0.13989637305699487 0.13619541080680975 0.13619541080680975 0.13619541080680975 0.13545521835677274 0.13545521835677274 0.13545521835677274 0.1421169504071058 0.14803849000740188 0.15025906735751293,68.5 88.5 108.5 128.5 148.5 168.5 188.5 208.5 228.5 248.5 268.5 288.5 308.5 328.5 348.5 368.5 388.5 408.5 428.5 448.5 468.5 488.5 508.5 528.5 548.5 568.5 588.5 608.5 628.5 648.5 668.5 688.5 708.5 728.5 748.5 768.5 788.5 808.5 828.5 848.5 868.5 888.5 908.5 928.5 948.5 968.5 988.5 1008.5 1028.5 1048.5 1068.5 1088.5 1108.5 1128.5 1148.5 1168.5 1188.5 1208.5 1228.5 1248.5 1268.5 1288.5 1308.5 1328.5 1348.5 1368.5 1388.5 1408.5 1428.5 1448.5 1468.5 1488.5 1508.5 1528.5 1548.5 1568.5 1588.5 1608.5 1628.5 1648.5 1668.5 1688.5 1708.5 1728.5 1748.5 1768.5 1788.5 1808.5
cb_08,6.0,enc_trial,stim,response,STEM students,887.2999999046443,enc_trial,1.0,6.0,s_s_19_1,student_stem,fold-c,circuit board,8.0,unique,far,paired,s_s_19_1.jpg,stem,student-b1,STEM students,Fine Arts students,sub-47,1.0,1.0,1.0,1.0,0.5016654330125833 0.5016654330125833 0.4983345669874168 0.4927831236121392 0.4827905255366395 0.4711324944485567 0.4433752775721688 0.4150629163582532 0.3795336787564767 0.3539970392301999 0.3156920799407846 0.28404885270170244 0.24796447076239825 0.2285344189489267 0.20743893412287195 0.19300518134715025 0.16802368615840116 0.14970392301998514 0.13138415988156918 0.12638786084381934 0.12416728349370836 0.1247224278312361 0.12638786084381934 0.12638786084381934 0.12638786084381934 0.12527757216876387 0.1247224278312361,0.7912657290895633 0.7912657290895633 0.7868245743893412 0.7809030347890451 0.765358993338268 0.7475943745373796 0.7105847520355293 0.6669133974833457 0.5840118430792005 0.5077720207253886 0.40044411547002223 0.3308660251665433 0.26202812731310143 0.231680236861584 0.2146558105107328 0.2050333086602517 0.19096965210954853 0.1843079200592153 0.17024426350851218 0.16136195410806808 0.156180606957809 0.1569207994078461 0.16432272390821612 0.1695040710584752 0.1695040710584752 0.16728349370836415 0.1650629163582531,377.5 397.5 417.5 437.5 457.5 477.5 497.5 517.5 537.5 557.5 577.5 597.5 617.5 637.5 657.5 677.5 697.5 717.5 737.5 757.5 777.5 797.5 817.5 837.5 857.5 877.5 897.5
cb_08,7.0,enc_trial,stim,response,STEM students,1043.0,enc_trial,1.0,7.0,s_s_11_2,student_stem,fold-d,scientific scale,8.0,unique,close,paired,s_s_11_2.jpg,stem,student-b1,STEM students,Fine Arts students,sub-47,1.0,1.0,1.0,1.0,0.5049962990377498 0.5049962990377498 0.5049962990377498 0.5049962990377498 0.5049962990377498 0.5049962990377498 0.5049962990377498 0.5044411547002221 0.5033308660251665 0.5011102886750555 0.4972242783123612 0.4911176905995559 0.4822353811991118 0.4605847520355292 0.43282753515914135 0.3945225758697261 0.3667653589933383 0.3329015544041451 0.310140636565507 0.2796076980014804 0.2579570688378978 0.2368615840118431 0.22131754256106587 0.20965951147298287 0.20355292376017764 0.193560325684678 0.18745373797187267 0.18634344929681715 0.18634344929681715 0.18412287194670607 0.17690599555884529 0.16413767579570687 0.15247964470762396 0.14193190229459654 0.13915618060695778 0.13860103626943004 0.13860103626943004,0.8164322723908216 0.8164322723908216 0.8164322723908216 0.8164322723908216 0.8156920799407846 0.8156920799407846 0.8149518874907475 0.8134715025906736 0.8097705403404886 0.8053293856402665 0.7957068837897854 0.7823834196891192 0.764618800888231 0.7216876387860844 0.6683937823834196 0.5854922279792747 0.5136935603256847 0.4122871946706144 0.3515914137675795 0.29311621021465584 0.2649888971132495 0.2413027387120651 0.22427831236121387 0.2102146558105107 0.20207253886010368 0.1924500370096225 0.18578830495928944 0.1835677276091784 0.1835677276091784 0.17986676535899335 0.17098445595854928 0.1606217616580311 0.156180606957809 0.15396002960769806 0.15321983715766094 0.15321983715766094 0.15247964470762398,314.3999999999942 334.3999999999942 354.3999999999942 374.3999999999942 394.3999999999942 414.3999999999942 434.3999999999942 454.3999999999942 474.3999999999942 494.3999999999942 514.3999999999942 534.3999999999942 554.3999999999942 574.3999999999943 594.3999999999943 614.3999999999943 634.3999999999943 654.3999999999943 674.3999999999943 694.3999999999942 714.3999999999942 734.3999999999942 754.3999999999942 774.3999999999942 794.3999999999942 814.3999999999942 834.3999999999942 854.3999999999942 874.3999999999942 894.3999999999942 914.3999999999942 934.3999999999942 954.3999999999942 974.3999999999942 994.3999999999942 1014.3999999999942 1034.3999999999942
cb_08,8.0,enc_trial,stim,response,STEM students,1436.8000000476895,enc_trial,1.0,8.0,s_sh_19_2,student_shared,fold-a,portable plastic drawer,8.0,competing,close,paired,s_sh_19_2.jpg,,student-b1,STEM students,Fine Arts students,sub-47,1.0,1.0,1.0,0.0,0.5127683197631384 0.5127683197631384 0.5105477424130274 0.5061065877128054 0.4966691339748335 0.479459659511473 0.4583641746854182 0.4139526276831976 0.3617690599555885 0.3295706883789785 0.3129163582531458 0.3201332346410067 0.3428941524796447 0.3639896373056995 0.4011843079200592 0.4389341228719467 0.4761287934863064 0.5160991857883049 0.5488527017024426 0.5999259807549963 0.6471132494448556 0.7054034048852701 0.7453737971872686 0.7803478904515173 0.7858993338267949 0.7853441894892672 0.7809030347890451 0.7625832716506291 0.7348260547742412 0.6465581051073278 0.5455218356772761 0.4084011843079201 0.3362324204293116 0.271280532938564 0.23575129533678754 0.19855662472242785 0.17690599555884529 0.15414507772020725 0.14248704663212433 0.13304959289415247 0.1274981495188749 0.1247224278312361 0.1247224278312361 0.12638786084381934 0.12694300518134713 0.12694300518134713 0.12694300518134713 0.12694300518134713 0.12694300518134713 0.1274981495188749 0.12805329385640266 0.12805329385640266 0.12805329385640266,0.8023686158401184 0.8016284233900814 0.7986676535899334 0.7934863064396743 0.7831236121391562 0.7609178386380459 0.7313101406365655 0.6654330125832717 0.5684678016284234 0.4833456698741673 0.3952627683197632 0.3138415988156921 0.2716506291635825 0.2494448556624722 0.2146558105107328 0.1828275351591414 0.16210214655810504 0.14507772020725385 0.12731310140636565 0.10436713545521836 0.0932642487046632 0.0895632864544782 0.0895632864544782 0.09030347890451518 0.09178386380458914 0.09178386380458914 0.09548482605477426 0.10140636565507033 0.1073279052553664 0.12287194670614356 0.13693560325684673 0.13915618060695778 0.13101406365655066 0.12657290895632867 0.12731310140636565 0.13249444855662473 0.13249444855662473 0.1250925240562546 0.1206513693560326 0.11917098445595853 0.11843079200592155 0.11769059955588455 0.11769059955588455 0.11991117690599552 0.12139156180606958 0.12213175425610655 0.12213175425610655 0.12213175425610655 0.12213175425610655 0.12287194670614356 0.12287194670614356 0.12287194670614356 0.12361213915618065,405.80000000001746 425.80000000001746 445.80000000001746 465.80000000001746 485.80000000001746 505.80000000001746 525.8000000000175 545.8000000000175 565.8000000000175 585.8000000000175 605.8000000000175 625.8000000000175 645.8000000000175 665.8000000000175 685.8000000000175 705.8000000000176 725.8000000000176 745.8000000000176 765.8000000000176 785.8000000000176 805.8000000000176 825.8000000000176 845.8000000000176 865.8000000000176 885.8000000000176 905.8000000000177 925.8000000000177 945.8000000000177 965.8000000000177 985.8000000000177 1005.8000000000177 1025.8000000000177 1045.8000000000177 1065.8000000000177 1085.8000000000177 1105.8000000000177 1125.8000000000177 1145.8000000000175 1165.8000000000175 1185.8000000000175 1205.8000000000175 1225.8000000000175 1245.8000000000175 1265.8000000000175 1285.8000000000175 1305.8000000000175 1325.8000000000175 1345.8000000000175 1365.8000000000175 1385.8000000000175 1405.8000000000175 1425.8000000000175 1445.8000000000175
cb_08,9.0,enc_trial,stim,response,STEM students,988.1999999046384,enc_trial,1.0,9.0,s_sh_07_1,student_shared,fold-a,ruler,8.0,competing,close,paired,s_sh_07_1.jpg,,student-b1,STEM students,Fine Arts students,sub-47,0.0,0.0,1.0,1.0,0.4966691339748335 0.4966691339748335 0.4966691339748335 0.4966691339748335 0.4950037009622502 0.4927831236121392 0.4900074019245004 0.4872316802368616 0.4789045151739452 0.4683567727609178 0.4411547002220577 0.4089563286454478 0.3589933382679497 0.3212435233160621 0.2773871206513693 0.2462990377498149 0.2207623982235381 0.211880088823094 0.2041080680977054 0.1963360473723168 0.18301258327165065 0.17579570688378976 0.17357512953367873 0.17357512953367873 0.17357512953367873 0.173019985196151 0.16913397483345669 0.16413767579570687 0.1558105107327905 0.14859363434492967 0.13860103626943004 0.1324944485566247 0.12971872686898592 0.1274981495188749 0.1274981495188749 0.1274981495188749,0.8149518874907475 0.8149518874907475 0.8142116950407106 0.8082901554404145 0.7964470762398224 0.7838638045891932 0.7594374537379719 0.7357512953367875 0.6928201332346411 0.6580310880829016 0.6025166543301259 0.5529237601776462 0.4715025906735752 0.4093264248704663 0.3404885270170245 0.29681717246484085 0.2590673575129534 0.23538119911176905 0.2124352331606217 0.19837157660991853 0.1806069578090304 0.17098445595854928 0.1658031088082902 0.1658031088082902 0.1658031088082902 0.1658031088082902 0.16358253145817914 0.1606217616580311 0.156180606957809 0.15247964470762398 0.1472982975573649 0.14581791265729094 0.14507772020725385 0.14507772020725385 0.14581791265729094 0.14655810510732792,263.0 283.0 303.0 323.0 343.0 363.0 383.0 403.0 423.0 443.0 463.0 483.0 503.0 523.0 543.0 563.0 583.0 603.0 623.0 643.0 663.0 683.0 703.0 723.0 743.0 763.0 783.0 803.0 823.0 843.0 863.0 883.0 903.0 923.0 943.0 963.0
cb_08,10.0,enc_trial,stim,response,Fine Arts students,1327.3999999999942,enc_trial,1.0,10.0,s_a_14_1,student_art,fold-c,guitar pick,8.0,unique,far,paired,s_a_14_1.jpg,art,student-b1,STEM students,Fine Arts students,sub-47,1.0,1.0,1.0,1.0,0.5 0.5 0.5 0.5 0.5 0.5 0.5 0.5 0.5 0.5 0.5 0.4994448556624722 0.4994448556624722 0.4988897113249445 0.4983345669874168 0.4983345669874168 0.497779422649889 0.497779422649889 0.497779422649889 0.497779422649889 0.495558845299778 0.4888971132494449 0.4672464840858623 0.4472612879348631 0.4183937823834197 0.3767579570688379 0.34011843079200593 0.2979274611398964 0.26572908956328645 0.23297557364914875 0.2146558105107328 0.20743893412287195 0.2091043671354552 0.22131754256106587 0.2490747594374537 0.28793486306439675 0.3512213175425611 0.3928571428571429 0.4494818652849741 0.4994448556624722 0.5610658771280533 0.6115840118430791 0.6654330125832716 0.7281643227239082 0.7670244263508512 0.7897853441894892 0.810880829015544 0.82920059215396 0.8547372316802369 0.8663952627683197 0.8658401184307919 0.8552923760177645 0.8297557364914877 0.8147668393782382 0.8131014063656551 0.8142116950407106 0.8186528497409326 0.8397483345669874 0.868060695780903 0.9019245003700962 0.9096965210954848,0.8186528497409327 0.8186528497409327 0.8186528497409327 0.8186528497409327 0.8186528497409327 0.8186528497409327 0.8186528497409327 0.8186528497409327 0.8179126572908957 0.8164322723908216 0.8097705403404886 0.7979274611398963 0.7883049592894152 0.7794226498889711 0.7742413027387121 0.7660991857883049 0.7557364914877869 0.7453737971872687 0.7357512953367875 0.7231680236861584 0.7083641746854182 0.6913397483345669 0.6558105107327905 0.6276831976313841 0.5847520355292376 0.5151739452257587 0.4485566247224279 0.3730569948186528 0.3271650629163583 0.2820133234641007 0.2457438934122872 0.2272390821613619 0.2139156180606958 0.20873427091043675 0.20725388601036265 0.20429311621021465 0.2013323464100666 0.19541080680977047 0.1746854182087343 0.156180606957809 0.1428571428571429 0.13767579570688382 0.13693560325684673 0.13693560325684673 0.13693560325684673 0.13767579570688382 0.1384159881569208 0.13619541080680975 0.1339748334566987 0.1339748334566987 0.13545521835677274 0.13989637305699487 0.1384159881569208 0.1295336787564767 0.12805329385640266 0.12805329385640266 0.12731310140636565 0.1243523316062176 0.12361213915618065 0.12361213915618065 0.12657290895632867,63.0 83.0 103.0 123.0 143.0 163.0 183.0 203.0 223.0 243.0 263.0 283.0 303.0 323.0 343.0 363.0 383.0 403.0 423.0 443.0 463.0 483.0 503.0 523.0 543.0 563.0 583.0 603.0 623.0 643.0 663.0 683.0 703.0 723.0 743.0 763.0 783.0 803.0 823.0 843.0 863.0 883.0 903.0 923.0 943.0 963.0 983.0 1003.0 1023.0 1043.0 1063.0 1083.0 1103.0 1123.0 1143.0 1163.0 1183.0 1203.0 1223.0 1243.0 1263.0
cb_08,11.0,enc_trial,stim,response,STEM students,1142.8000000000175,enc_trial,1.0,11.0,s_s_20_1,student_stem,fold-d,dna model,8.0,unique,close,paired,s_s_20_1.jpg,stem,student-b1,STEM students,Fine Arts students,sub-47,1.0,1.0,1.0,1.0,0.4894522575869726 0.4894522575869726 0.4894522575869726 0.4894522575869726 0.4894522575869726 0.4894522575869726 0.4916728349370837 0.4944485566247224 0.4983345669874168 0.5005551443375278 0.5049962990377498 0.5077720207253886 0.5127683197631384 0.5210954848260547 0.5321983715766099 0.5371946706143598 0.5355292376017765 0.5244263508512214 0.4966691339748335 0.4761287934863064 0.461139896373057 0.4616950407105848 0.4783493708364175 0.5033308660251665 0.5577350111028867 0.6088082901554404 0.6443375277572169 0.6376757957068837 0.5655070318282753 0.4622501850481125 0.3478904515173945 0.2290895632864545 0.19800148038490006 0.19078460399703925 0.1974463360473723 0.2041080680977054 0.20355292376017764 0.20077720207253885 0.2002220577350111 0.2002220577350111 0.2002220577350111 0.19578090303478904 0.18301258327165065 0.16913397483345669 0.16857883049592892 0.16857883049592892 0.16913397483345669 0.16857883049592892 0.16802368615840116,0.8201332346410066 0.8201332346410066 0.8201332346410066 0.8193930421909696 0.8156920799407846 0.8075499629903775 0.7934863064396743 0.7801628423390081 0.7579570688378978 0.7387120651369357 0.7031828275351591 0.6765358993338269 0.6299037749814952 0.5854922279792747 0.5292376017764621 0.4907475943745374 0.45669874167283503 0.4352331606217617 0.4071058475203553 0.384159881569208 0.3493708364174686 0.32272390821613617 0.2960769800148039 0.2738712065136936 0.2405625462620281 0.2235381199111769 0.2139156180606958 0.2057735011102887 0.1991117690599556 0.1991117690599556 0.20873427091043675 0.21687638786084384 0.2102146558105107 0.20281273131014066 0.1961509992598075 0.1865284974093264 0.1828275351591414 0.17764618800888232 0.1739452257586973 0.17024426350851218 0.17024426350851218 0.16876387860843822 0.16876387860843822 0.16654330125832714 0.16654330125832714 0.16654330125832714 0.16876387860843822 0.16876387860843822 0.16876387860843822,194.30000000001743 214.30000000001743 234.30000000001743 254.30000000001743 274.3000000000174 294.3000000000174 314.3000000000174 334.3000000000174 354.30000000001746 374.30000000001746 394.30000000001746 414.30000000001746 434.30000000001746 454.30000000001746 474.30000000001746 494.30000000001746 514.3000000000175 534.3000000000175 554.3000000000175 574.3000000000175 594.3000000000175 614.3000000000175 634.3000000000175 654.3000000000175 674.3000000000175 694.3000000000176 714.3000000000176 734.3000000000176 754.3000000000176 774.3000000000176 794.3000000000176 814.3000000000176 834.3000000000176 854.3000000000176 874.3000000000176 894.3000000000176 914.3000000000177 934.3000000000177 954.3000000000177 974.3000000000177 994.3000000000177 1014.3000000000177 1034.3000000000177 1054.3000000000177 1074.3000000000177 1094.3000000000177 1114.3000000000177 1134.3000000000175 1154.3000000000175
cb_08,12.0,enc_trial,stim,response,STEM students,837.1999999046384,enc_trial,1.0,12.0,s_sh_07_2,student_shared,fold-a,ruler,8.0,competing,close,paired,s_sh_07_2.jpg,,student-b1,STEM students,Fine Arts students,sub-47,0.0,0.0,1.0,1.0,0.4583641746854182 0.4378238341968912 0.4150629163582532 0.38786084381939306 0.3745373797187269 0.3689859363434493 0.3723168023686159 0.3817542561065877 0.3917468541820873 0.4122871946706144 0.4289415247964471 0.4461509992598076 0.4517024426350851 0.4572538860103627 0.4594744633604737 0.4600296076980015 0.4605847520355292 0.4605847520355292 0.4605847520355292 0.4605847520355292 0.461139896373057 0.461139896373057 0.4539230199851961 0.4272760917838638 0.399518874907476 0.35233160621761656 0.3162472242783124 0.2696150999259808 0.23963730569948186 0.2013323464100666 0.17635085122131752 0.14914877868245746 0.13582531458179126 0.12416728349370836 0.115840118430792 0.10751295336787564 0.10695780903034788 0.10751295336787564 0.1091783863804589 0.10973353071798668,0.7816432272390822 0.7616580310880829 0.7350111028867505 0.6891191709844561 0.6513693560325684 0.6099185788304959 0.5884529977794226 0.5736491487786824 0.5706883789785344 0.5758697261287935 0.5840118430792005 0.5936343449296817 0.5973353071798668 0.6002960769800147 0.6017764618800888 0.6017764618800888 0.6025166543301259 0.6025166543301259 0.6025166543301259 0.6025166543301259 0.6002960769800147 0.5958549222797928 0.5847520355292376 0.5521835677276092 0.5218356772760917 0.4685418208734271 0.4182087342709104 0.3508512213175425 0.307920059215396 0.2598075499629904 0.232420429311621 0.2013323464100666 0.1835677276091784 0.16728349370836415 0.15766099185788307 0.14877868245743894 0.14803849000740188 0.15025906735751293 0.15321983715766094 0.15470022205773504,0.0 20.0 40.0 60.0 80.0 100.0 120.0 140.0 160.0 180.0 200.0 220.0 240.0 260.0 280.0 300.0 320.0 340.0 360.0 380.0 400.0 420.0 440.0 460.0 480.0 500.0 520.0 540.0 560.0 580.0 600.0 620.0 640.0 660.0 680.0 700.0 720.0 740.0 760.0 780.0
cb_08,13.0,enc_trial,stim,response,STEM students,1150.899999904621,enc_trial,1.0,13.0,s_sh_09_1,student_shared,fold-c,paper clips,8.0,competing,far,paired,s_sh_09_1.jpg,,student-b1,STEM students,Fine Arts students,sub-47,0.0,0.0,1.0,0.0,0.5133234641006662 0.5138786084381939 0.5160991857883049 0.520540340488527 0.5255366395262768 0.5266469282013323 0.5272020725388601 0.5266469282013323 0.5255366395262768 0.5244263508512214 0.5233160621761658 0.5227609178386381 0.5222057735011103 0.5222057735011103 0.5222057735011103 0.5222057735011103 0.5222057735011103 0.5222057735011103 0.5222057735011103 0.5222057735011103 0.5222057735011103 0.5222057735011103 0.5222057735011103 0.5222057735011103 0.5216506291635825 0.5149888971132495 0.5066617320503329 0.4850111028867505 0.4511472982975573 0.41894892672094747 0.38619541080680975 0.346780162842339 0.32179866765358994 0.29959289415247964 0.29071058475203554 0.2884900074019245 0.2884900074019245 0.2901554404145077 0.2979274611398964 0.31236121391561805 0.3267949666913397 0.33401184307920057 0.33345669874167283 0.32457438934122873 0.3012583271650629 0.2579570688378978 0.2129903774981495 0.1885640266469282 0.17468541820873426 0.16524796447076234 0.15692079940784606 0.13749074759437452 0.12028127313101405 0.10584752035529237 0.1025166543301258 0.1025166543301258 0.1025166543301258 0.10307179866765358,0.8060695780903034 0.8060695780903034 0.8023686158401184 0.7957068837897854 0.7809030347890451 0.768319763138416 0.7475943745373796 0.7313101406365655 0.7120651369356032 0.7024426350851221 0.6980014803849001 0.6950407105847521 0.6943005181347149 0.6943005181347149 0.6943005181347149 0.6943005181347149 0.6943005181347149 0.6943005181347149 0.6943005181347149 0.6943005181347149 0.6943005181347149 0.6943005181347149 0.6943005181347149 0.6943005181347149 0.6943005181347149 0.6839378238341969 0.6728349370836417 0.6506291635825314 0.615840118430792 0.5758697261287935 0.5277572168763879 0.45669874167283503 0.4100666173205033 0.3663952627683198 0.34196891191709844 0.3271650629163583 0.3138415988156921 0.3034789045151739 0.29311621021465584 0.27905255366395265 0.2635085122131754 0.2509252405625463 0.23834196891191706 0.227979274611399 0.2146558105107328 0.1991117690599556 0.17616580310880825 0.16210214655810504 0.156180606957809 0.15396002960769806 0.15321983715766094 0.156180606957809 0.156180606957809 0.15470022205773504 0.15396002960769806 0.15396002960769806 0.15396002960769806 0.15396002960769806,0.0 20.0 40.0 60.0 80.0 100.0 120.0 140.0 160.0 180.0 200.0 220.0 240.0 260.0 280.0 300.0 320.0 340.0 360.0 380.0 400.0 420.0 440.0 460.0 480.0 500.0 520.0 540.0 560.0 580.0 600.0 620.0 640.0 660.0 680.0 700.0 720.0 740.0 760.0 780.0 800.0 820.0 840.0 860.0 880.0 900.0 920.0 940.0 960.0 980.0 1000.0 1020.0 1040.0 1060.0 1080.0 1100.0 1120.0 1140.0
cb_08,14.0,enc_trial,stim,response,Fine Arts students,1329.5,enc_trial,1.0,14.0,s_a_06_1,student_art,fold-d,pastels,8.0,unique,close,paired,s_a_06_1.jpg,art,student-b1,STEM students,Fine Arts students,sub-47,1.0,1.0,1.0,1.0,0.5033308660251665 0.5033308660251665 0.5033308660251665 0.5 0.4894522575869726 0.4650259067357513 0.4417098445595855 0.40173945225758695 0.367320503330866 0.31902294596595115 0.27183567727609176 0.23464100666173204 0.20632864544781648 0.18023686158401184 0.1635825314581791 0.15525536639526274 0.1480384900074019 0.14581791265729088 0.14526276831976312 0.1430421909696521 0.13749074759437452 0.12527757216876387 0.115840118430792 0.11528497409326426 0.11861584011843078 0.1247224278312361 0.12638786084381934 0.12638786084381934 0.13304959289415247 0.15303478904515172 0.19300518134715025 0.2768319763138416 0.3517764618800888 0.4639156180606958 0.5416358253145818 0.6498889711324944 0.7103997039230199 0.7609178386380459 0.7792376017764618 0.7886750555144337 0.7942264988897113 0.8003330866025166 0.8003330866025166 0.8003330866025166 0.8008882309400444 0.8131014063656551 0.8225388601036269 0.8264248704663212,0.7912657290895633 0.7912657290895633 0.7905255366395263 0.7860843819393042 0.7742413027387121 0.7431532198371577 0.7054034048852702 0.6276831976313841 0.5551443375277572 0.4529977794226498 0.3663952627683198 0.3131014063656551 0.2760917838638046 0.2413027387120651 0.22501850481125096 0.21983715766099188 0.2094744633604737 0.2005921539600296 0.19467061435973354 0.1924500370096225 0.1850481125092525 0.16876387860843822 0.15025906735751293 0.13915618060695778 0.13175425610658775 0.12731310140636565 0.12805329385640266 0.12879348630643972 0.12879348630643972 0.13027387120651368 0.13545521835677274 0.15025906735751293 0.156180606957809 0.15914137675795706 0.1606217616580311 0.1606217616580311 0.1569207994078461 0.15321983715766094 0.151739452257587 0.14951887490747595 0.14655810510732792 0.14359733530717989 0.14359733530717989 0.14359733530717989 0.14359733530717989 0.14507772020725385 0.14951887490747595 0.15321983715766094,360.2000000000116 380.2000000000116 400.2000000000116 420.2000000000116 440.2000000000116 460.2000000000116 480.2000000000116 500.2000000000116 520.2000000000116 540.2000000000116 560.2000000000116 580.2000000000116 600.2000000000116 620.2000000000116 640.2000000000116 660.2000000000116 680.2000000000116 700.2000000000116 720.2000000000116 740.2000000000116 760.2000000000116 780.2000000000116 800.2000000000116 820.2000000000116 840.2000000000116 860.2000000000116 880.2000000000116 900.2000000000116 920.2000000000116 940.2000000000116 960.2000000000116 980.2000000000116 1000.2000000000116 1020.2000000000116 1040.2000000000116 1060.2000000000116 1080.2000000000116 1100.2000000000116 1120.2000000000116 1140.2000000000114 1160.2000000000114 1180.2000000000114 1200.2000000000114 1220.2000000000114 1240.2000000000114 1260.2000000000114 1280.2000000000114 1300.2000000000114
cb_08,15.0,enc_trial,stim,response,STEM students,1414.1000000000058,enc_trial,1.0,15.0,s_s_20_2,student_stem,fold-d,dna model,8.0,unique,close,paired,s_s_20_2.jpg,stem,student-b1,STEM students,Fine Arts students,sub-47,1.0,1.0,1.0,1.0,0.5049962990377498 0.5061065877128054 0.5072168763878608 0.5083271650629163 0.5088823094004441 0.5094374537379719 0.5099925980754997 0.5105477424130274 0.5111028867505552 0.5111028867505552 0.5111028867505552 0.5105477424130274 0.5088823094004441 0.5049962990377498 0.5011102886750555 0.4944485566247224 0.4883419689119171 0.4777942264988897 0.4683567727609178 0.4539230199851961 0.4389341228719467 0.4078460399703923 0.38341968911917096 0.3506661732050333 0.3295706883789785 0.3007031828275352 0.2779422649888971 0.25296076980014803 0.2418578830495929 0.2363064396743153 0.23242042931162105 0.2279792746113989 0.2257586972612879 0.2252035529237601 0.22409326424870465 0.21632124352331605 0.20743893412287195 0.19578090303478904 0.18800888230940044 0.1791265729089563 0.16968911917098445 0.15636565507031827 0.14637305699481865 0.13638045891931902 0.13304959289415247 0.12971872686898592 0.1274981495188749 0.1274981495188749 0.1274981495188749 0.1274981495188749 0.1274981495188749 0.1274981495188749 0.13415988156920794 0.16191709844559585 0.20299777942264988 0.2768319763138416 0.3251295336787565 0.3423390081421169 0.33401184307920057 0.2951517394522576 0.2462990377498149 0.18745373797187267 0.16302738712065135 0.14526276831976312 0.13304959289415247 0.11639526276831975 0.10418208734270908 0.09030347890451516 0.08530717986676534 0.08530717986676534 0.0858623242042931,0.7875647668393783 0.7860843819393042 0.7846039970392302 0.7831236121391562 0.7823834196891192 0.7809030347890451 0.7786824574389342 0.7757216876387858 0.7742413027387121 0.7705403404885269 0.767579570688379 0.7609178386380459 0.7549962990377498 0.7446336047372317 0.7364914877868245 0.7246484085862324 0.7157660991857884 0.7031828275351591 0.6928201332346411 0.6720947446336047 0.6513693560325684 0.6113989637305699 0.5751295336787565 0.5173945225758697 0.4744633604737232 0.4196891191709845 0.38193930421909694 0.3353071798667654 0.31088082901554404 0.2923760177646189 0.2827535159141377 0.2686898593634345 0.2538860103626943 0.22945965951147296 0.21613619541080686 0.1991117690599556 0.19096965210954853 0.18134715025906734 0.17690599555884534 0.17172464840858626 0.16728349370836415 0.1606217616580311 0.1569207994078461 0.15544041450777202 0.15544041450777202 0.15544041450777202 0.15544041450777202 0.15544041450777202 0.15544041450777202 0.15544041450777202 0.15544041450777202 0.15544041450777202 0.15544041450777202 0.15840118430792005 0.1650629163582531 0.17764618800888232 0.1850481125092525 0.1865284974093264 0.18208734270910432 0.17098445595854928 0.16728349370836415 0.16654330125832714 0.16284233900814216 0.1569207994078461 0.15321983715766094 0.1509992598075499 0.15025906735751293 0.14877868245743894 0.14803849000740188 0.14803849000740188 0.14803849000740188,0.0 20.0 40.0 60.0 80.0 100.0 120.0 140.0 160.0 180.0 200.0 220.0 240.0 260.0 280.0 300.0 320.0 340.0 360.0 380.0 400.0 420.0 440.0 460.0 480.0 500.0 520.0 540.0 560.0 580.0 600.0 620.0 640.0 660.0 680.0 700.0 720.0 740.0 760.0 780.0 800.0 820.0 840.0 860.0 880.0 900.0 920.0 940.0 960.0 980.0 1000.0 1020.0 1040.0 1060.0 1080.0 1100.0 1120.0 1140.0 1160.0 1180.0 1200.0 1220.0 1240.0 1260.0 1280.0 1300.0 1320.0 1340.0 1360.0 1380.0 1400.0
cb_08,16.0,enc_trial,stim,response,STEM students,870.0999999046326,enc_trial,1.0,16.0,s_s_15_2,student_stem,fold-c,jumper cables,8.0,unique,far,paired,s_s_15_2.jpg,stem,student-b1,STEM students,Fine Arts students,sub-47,1.0,1.0,1.0,1.0,0.5355292376017765 0.5355292376017765 0.536639526276832 0.5371946706143598 0.5377498149518875 0.5371946706143598 0.5344189489267209 0.5316432272390822 0.5288675055514434 0.5255366395262768 0.5227609178386381 0.5172094744633605 0.5122131754256106 0.5044411547002221 0.495558845299778 0.4883419689119171 0.4716876387860844 0.4572538860103627 0.4422649888971133 0.4217246484085863 0.40618060695780905 0.3900814211695041 0.3784233900814212 0.3617690599555885 0.3456698741672835 0.3201332346410067 0.2862694300518135 0.25518134715025903 0.2313101406365655 0.21132494448556624 0.2052183567727609 0.19966691339748333 0.18800888230940044 0.17190969652109547 0.15470022205773498 0.13471502590673573 0.12860843819393042 0.12527757216876387 0.1247224278312361 0.12416728349370836 0.12416728349370836 0.12416728349370836 0.12416728349370836 0.12416728349370836,0.8001480384900074 0.8001480384900074 0.7979274611398963 0.7942264988897113 0.7875647668393783 0.7801628423390081 0.767579570688379 0.7586972612879348 0.7512953367875648 0.7438934122871947 0.7379718726868986 0.7276091783863805 0.7187268689859363 0.7039230199851961 0.6876387860843821 0.6743153219837157 0.6521095484826055 0.6328645447816432 0.6113989637305699 0.5780903034789044 0.5507031828275352 0.5129533678756477 0.4840858623242042 0.4463360473723168 0.4159881569207994 0.37675795706883786 0.33752775721687633 0.30125832716506296 0.2672094744633605 0.23019985196150994 0.21317542561065872 0.19837157660991853 0.1843079200592153 0.1695040710584752 0.15544041450777202 0.14137675795706886 0.13915618060695778 0.13693560325684673 0.13619541080680975 0.13619541080680975 0.13619541080680975 0.13619541080680975 0.13619541080680975 0.13545521835677274,5.799999999988357 25.799999999988362 45.79999999998836 65.79999999998836 85.79999999998836 105.79999999998836 125.79999999998836 145.7999999999884 165.7999999999884 185.79999999998842 205.79999999998842 225.79999999998842 245.79999999998842 265.7999999999884 285.79999999998836 305.79999999998836 325.79999999998836 345.7999999999884 365.7999999999884 385.7999999999884 405.7999999999884 425.7999999999884 445.7999999999884 465.7999999999884 485.7999999999884 505.7999999999884 525.7999999999884 545.7999999999884 565.7999999999884 585.7999999999884 605.7999999999884 625.7999999999884 645.7999999999884 665.7999999999884 685.7999999999884 705.7999999999884 725.7999999999884 745.7999999999884 765.7999999999884 785.7999999999884 805.7999999999884 825.7999999999884 845.7999999999884 865.7999999999884
cb_08,17.0,enc_trial,stim,response,Fine Arts students,1232.1000000476781,enc_trial,1.0,17.0,s_a_06_2,student_art,fold-d,pastels,8.0,unique,close,paired,s_a_06_2.jpg,art,student-b1,STEM students,Fine Arts students,sub-47,1.0,1.0,1.0,1.0,0.5144337527757217 0.5144337527757217 0.5133234641006662 0.5099925980754997 0.5066617320503329 0.5005551443375278 0.4922279792746114 0.4678016284233901 0.4411547002220577 0.3978534418948927 0.3545521835677276 0.2962620281273131 0.2590673575129533 0.2124352331606217 0.1741302738712065 0.15470022205773498 0.14637305699481865 0.14637305699481865 0.14914877868245746 0.15692079940784606 0.16080680977054032 0.16136195410806808 0.16802368615840116 0.19855662472242785 0.2435233160621761 0.328460399703923 0.4161732050333087 0.5482975573649149 0.6676535899333826 0.7337157660991858 0.7858993338267949 0.8008882309400444 0.8047742413027387 0.8092153960029608 0.810880829015544 0.810880829015544 0.810880829015544 0.8114359733530717 0.8169874167283493 0.8258697261287934 0.8303108808290155 0.8308660251665433 0.8308660251665433 0.8308660251665433,0.8290155440414508 0.8282753515914137 0.8267949666913398 0.8230940044411548 0.8179126572908957 0.8023686158401184 0.7823834196891192 0.7409326424870466 0.6972612879348631 0.6306439674315322 0.5692079940784605 0.4863064396743153 0.42561065877128057 0.3471502590673575 0.2864544781643227 0.25240562546262024 0.22575869726128794 0.2124352331606217 0.2057735011102887 0.19985196150999265 0.1961509992598075 0.18948926720947445 0.17764618800888232 0.16136195410806808 0.14877868245743894 0.13767579570688382 0.12731310140636565 0.1117690599555885 0.10584752035529232 0.10510732790525534 0.10954848260547743 0.11250925240562548 0.11398963730569946 0.11695040710584748 0.11843079200592155 0.11843079200592155 0.11843079200592155 0.11843079200592155 0.1206513693560326 0.1243523316062176 0.12879348630643972 0.1295336787564767 0.1295336787564767 0.13027387120651368,354.5 374.5 394.5 414.5 434.5 454.5 474.5 494.5 514.5 534.5 554.5 574.5 594.5 614.5 634.5 654.5 674.5 694.5 714.5 734.5 754.5 774.5 794.5 814.5 834.5 854.5 874.5 894.5 914.5 934.5 954.5 974.5 994.5 1014.5 1034.5 1054.5 1074.5 1094.5 1114.5 1134.5 1154.5 1174.5 1194.5 1214.5
cb_08,18.0,enc_trial,stim,response,STEM students,860.3999999046208,enc_trial,1.0,18.0,s_sh_20_1,student_shared,fold-c,tape,8.0,competing,far,paired,s_sh_20_1.jpg,,student-b1,STEM students,Fine Arts students,sub-47,0.0,0.0,0.0,1.0,0.5016654330125833 0.5016654330125833 0.5016654330125833 0.5005551443375278 0.5 0.4994448556624722 0.4983345669874168 0.4972242783123612 0.4944485566247224 0.4911176905995559 0.4850111028867505 0.4789045151739452 0.4700222057735011 0.4622501850481125 0.45003700962250187 0.4378238341968912 0.4178386380458921 0.399518874907476 0.3789785344189489 0.36509992598075497 0.3506661732050333 0.3367875647668393 0.31902294596595115 0.3051443375277572 0.2862694300518135 0.26905995558845297 0.24518874907475946 0.2257586972612879 0.20355292376017764 0.19022945965951146 0.17746113989637305 0.17357512953367873 0.1702442635085122 0.1663582531458179 0.15914137675795706 0.15414507772020725 0.15192450037009622 0.1508142116950407 0.14914877868245746 0.1480384900074019,0.8112509252405625 0.8105107327905255 0.8082901554404145 0.8008882309400445 0.7912657290895633 0.7831236121391562 0.7735011102886751 0.764618800888231 0.7520355292376018 0.7409326424870466 0.7239082161361954 0.7091043671354552 0.6905995558845299 0.6735751295336787 0.6513693560325684 0.6321243523316062 0.6047372316802369 0.5817912657290896 0.5573649148778683 0.5381199111769059 0.5099925980754996 0.4789045151739453 0.4359733530717986 0.4034048852701703 0.3656550703182827 0.3308660251665433 0.2827535159141377 0.2487046632124353 0.2176165803108808 0.19837157660991853 0.1746854182087343 0.1650629163582531 0.1509992598075499 0.14137675795706886 0.13027387120651368 0.1258327165062917 0.1250925240562546 0.12657290895632867 0.13101406365655066 0.1347150259067358,17.199999999982538 37.19999999998254 57.19999999998254 77.19999999998255 97.19999999998255 117.19999999998255 137.19999999998254 157.19999999998254 177.19999999998254 197.19999999998254 217.19999999998254 237.19999999998254 257.19999999998254 277.19999999998254 297.1999999999825 317.1999999999825 337.1999999999825 357.19999999998254 377.19999999998254 397.19999999998254 417.19999999998254 437.19999999998254 457.19999999998254 477.19999999998254 497.19999999998254 517.1999999999825 537.1999999999825 557.1999999999825 577.1999999999825 597.1999999999825 617.1999999999825 637.1999999999825 657.1999999999825 677.1999999999825 697.1999999999824 717.1999999999824 737.1999999999824 757.1999999999824 777.1999999999824 797.1999999999824
cb_08,19.0,enc_trial,stim,response,Fine Arts students,1045.500000047672,enc_trial,1.0,19.0,s_a_12_2,student_art,fold-c,saxophone,8.0,unique,far,paired,s_a_12_2.jpg,art,student-b1,STEM students,Fine Arts students,sub-47,1.0,1.0,1.0,1.0,0.4927831236121392 0.4927831236121392 0.4922279792746114 0.4911176905995559 0.4894522575869726 0.4883419689119171 0.4872316802368616 0.4861213915618061 0.4855662472242783 0.4844559585492228 0.4827905255366395 0.4805699481865285 0.4772390821613621 0.4683567727609178 0.4572538860103627 0.4361584011843079 0.4200592153960029 0.3928571428571429 0.37065136935603255 0.3440044411547002 0.328460399703923 0.310140636565507 0.29959289415247964 0.28737971872686896 0.2801628423390081 0.27516654330125834 0.2696150999259808 0.2590673575129533 0.24796447076239825 0.2313101406365655 0.22686898593634344 0.2374167283493709 0.2590673575129533 0.3273501110288675 0.4095114729829756 0.536639526276832 0.6265729089563286 0.7342709104367134 0.7920059215396003 0.8436343449296817 0.8619541080680977 0.8647298297557364 0.8647298297557364 0.8647298297557364 0.8647298297557364 0.8647298297557364 0.8647298297557364 0.8663952627683197 0.8730569948186528 0.8830495928941524 0.8858253145817913,0.8171724648408586 0.8149518874907475 0.8112509252405625 0.8045891931902295 0.7964470762398224 0.7897853441894893 0.7831236121391562 0.774981495188749 0.76980014803849 0.7609178386380459 0.7512953367875648 0.7409326424870466 0.7305699481865284 0.7120651369356032 0.6972612879348631 0.6750555144337528 0.6580310880829016 0.6276831976313841 0.6010362694300518 0.5669874167283493 0.5462620281273132 0.5225758697261288 0.5070318282753516 0.4863064396743153 0.4670614359733529 0.4485566247224279 0.4285714285714286 0.4056254626202813 0.3856402664692821 0.3471502590673575 0.31458179126572905 0.2820133234641007 0.2664692820133234 0.2361213915618061 0.20281273131014066 0.15470022205773504 0.13027387120651368 0.1110288675055514 0.09992598075499626 0.09178386380458914 0.0888230940044411 0.0888230940044411 0.0888230940044411 0.0888230940044411 0.0888230940044411 0.0888230940044411 0.0888230940044411 0.09104367135455216 0.09474463360473727 0.10140636565507033 0.10510732790525534,5.599999999976717 25.59999999997672 45.599999999976724 65.59999999997672 85.59999999997672 105.59999999997672 125.59999999997672 145.59999999997672 165.59999999997672 185.59999999997672 205.59999999997672 225.59999999997672 245.59999999997672 265.5999999999767 285.5999999999767 305.5999999999767 325.5999999999767 345.59999999997666 365.59999999997666 385.59999999997666 405.59999999997666 425.59999999997666 445.59999999997666 465.59999999997666 485.59999999997666 505.59999999997666 525.5999999999766 545.5999999999766 565.5999999999767 585.5999999999767 605.5999999999767 625.5999999999767 645.5999999999767 665.5999999999767 685.5999999999767 705.5999999999768 725.5999999999768 745.5999999999768 765.5999999999768 785.5999999999768 805.5999999999768 825.5999999999768 845.5999999999768 865.5999999999768 885.5999999999768 905.5999999999768 925.5999999999768 945.5999999999768 965.5999999999768 985.5999999999768 1005.5999999999768
cb_08,20.0,enc_trial,stim,response,STEM students,1312.2000000476835,enc_trial,1.0,20.0,s_a_09_1,student_art,fold-e-single,picture frame,8.0,unique,,single,s_a_09_1.jpg,art,student-b1,STEM students,Fine Arts students,sub-47,0.0,,0.0,,0.4950037009622502 0.4966691339748335 0.4983345669874168 0.4988897113249445 0.5 0.5 0.5005551443375278 0.5005551443375278 0.5005551443375278 0.5005551443375278 0.5 0.4994448556624722 0.497779422649889 0.4966691339748335 0.4944485566247224 0.4922279792746114 0.4883419689119171 0.4855662472242783 0.4827905255366395 0.4783493708364175 0.4755736491487787 0.4750185048112509 0.4750185048112509 0.4744633604737232 0.4716876387860844 0.4683567727609178 0.461139896373057 0.4539230199851961 0.445040710584752 0.43282753515914135 0.4278312361213916 0.4261658031088083 0.4239452257586973 0.41450777202072536 0.38341968911917096 0.3428941524796447 0.291820873427091 0.2274241302738712 0.17357512953367873 0.15303478904515172 0.14359733530717986 0.1352701702442635 0.13193930421909694 0.12860843819393042 0.12583271650629166 0.11972612879348628 0.1130643967431532 0.10695780903034788 0.10584752035529237 0.10695780903034788 0.11084381939304218 0.11972612879348628 0.12583271650629166 0.13304959289415247 0.13971132494448554 0.15025906735751293 0.15414507772020725 0.15470022205773498 0.15470022205773498 0.15470022205773498 0.15470022205773498 0.15470022205773498 0.15470022205773498 0.15470022205773498 0.15470022205773498 0.15470022205773498 0.15414507772020725,0.7920059215396003 0.7868245743893412 0.7816432272390822 0.7772020725388601 0.7735011102886751 0.7705403404885269 0.764618800888231 0.7601776461880089 0.7520355292376018 0.7468541820873427 0.7394522575869726 0.7342709104367136 0.7261287934863064 0.7194670614359733 0.7105847520355293 0.7017024426350851 0.6891191709844561 0.6780162842339008 0.6661732050333087 0.6432272390821614 0.6099185788304959 0.5854922279792747 0.5566247224278312 0.5381199111769059 0.5114729829755736 0.4885270170244264 0.4626202812731311 0.4470762398223538 0.4293116210214656 0.4034048852701703 0.3834196891191711 0.36343449296817176 0.3501110288675056 0.3345669874167283 0.307179866765359 0.2805329385640266 0.2501850481125093 0.21687638786084384 0.18874907475943747 0.17616580310880825 0.16876387860843822 0.15914137675795706 0.15321983715766094 0.14877868245743894 0.14507772020725385 0.13915618060695778 0.1332346410066617 0.1258327165062917 0.1243523316062176 0.1243523316062176 0.12731310140636565 0.1332346410066617 0.13767579570688382 0.14137675795706886 0.14433752775721687 0.14951887490747595 0.1509992598075499 0.1509992598075499 0.1509992598075499 0.1509992598075499 0.1509992598075499 0.1509992598075499 0.1509992598075499 0.1509992598075499 0.1509992598075499 0.15025906735751293 0.15025906735751293,0.0 20.0 40.0 60.0 80.0 100.0 120.0 140.0 160.0 180.0 200.0 220.0 240.0 260.0 280.0 300.0 320.0 340.0 360.0 380.0 400.0 420.0 440.0 460.0 480.0 500.0 520.0 540.0 560.0 580.0 600.0 620.0 640.0 660.0 680.0 700.0 720.0 740.0 760.0 780.0 800.0 820.0 840.0 860.0 880.0 900.0 920.0 940.0 960.0 980.0 1000.0 1020.0 1040.0 1060.0 1080.0 1100.0 1120.0 1140.0 1160.0 1180.0 1200.0 1220.0 1240.0 1260.0 1280.0 1300.0 1320.0
cb_08,21.0,enc_trial,stim,response,Fine Arts students,1065.5999999046326,enc_trial,1.0,21.0,s_a_15_1,student_art,fold-d,drum kit,8.0,unique,close,paired,s_a_15_1.jpg,art,student-b1,STEM students,Fine Arts students,sub-47,1.0,1.0,1.0,1.0,0.4961139896373057 0.4961139896373057 0.4961139896373057 0.4961139896373057 0.4961139896373057 0.4966691339748335 0.4966691339748335 0.4972242783123612 0.497779422649889 0.497779422649889 0.4972242783123612 0.4961139896373057 0.4938934122871947 0.4905625462620281 0.4861213915618061 0.4805699481865285 0.4733530717986677 0.4683567727609178 0.4616950407105848 0.4517024426350851 0.4261658031088083 0.399518874907476 0.35566247224278313 0.326239822353812 0.2868245743893412 0.2546262028127313 0.22020725388601034 0.2146558105107328 0.2540710584752036 0.3145817912657291 0.4139526276831976 0.4961139896373057 0.6004811250925239 0.6659881569207994 0.7370466321243523 0.7775721687638786 0.8225388601036269 0.8469652109548482 0.8613989637305699 0.8625092524056254 0.8625092524056254 0.8625092524056254 0.8630643967431532 0.8686158401184307 0.8736121391561805 0.8741672834937083,0.8356772760917839 0.8356772760917839 0.8349370836417469 0.8349370836417469 0.8349370836417469 0.8341968911917098 0.8327165062916358 0.8297557364914878 0.8201332346410066 0.8090303478904515 0.7912657290895633 0.7764618800888231 0.7542561065877128 0.7335307179866766 0.7068837897853442 0.6809770540340488 0.6461880088823094 0.6188008882309399 0.5877128053293856 0.5640266469282014 0.5299777942264989 0.5018504811250926 0.4544781643227239 0.4182087342709104 0.3686158401184307 0.3308660251665433 0.2753515914137675 0.23834196891191706 0.20355292376017764 0.19096965210954853 0.17912657290895628 0.16358253145817914 0.13693560325684673 0.12139156180606958 0.11028867505551444 0.10806809770540338 0.10954848260547743 0.11472982975573652 0.1206513693560326 0.12139156180606958 0.12139156180606958 0.12139156180606958 0.12361213915618065 0.13175425610658775 0.13989637305699487 0.14137675795706886,91.5 111.5 131.5 151.5 171.5 191.5 211.5 231.5 251.5 271.5 291.5 311.5 331.5 351.5 371.5 391.5 411.5 431.5 451.5 471.5 491.5 511.5 531.5 551.5 571.5 591.5 611.5 631.5 651.5 671.5 691.5 711.5 731.5 751.5 771.5 791.5 811.5 831.5 851.5 871.5 891.5 911.5 931.5 951.5 971.5 991.5
cb_08,22.0,enc_trial,stim,response,STEM students,803.9000000476954,enc_trial,1.0,22.0,s_s_19_2,student_stem,fold-c,circuit board,8.0,unique,far,paired,s_s_19_2.jpg,stem,student-b1,STEM students,Fine Arts students,sub-47,1.0,1.0,1.0,1.0,0.5083271650629163 0.5083271650629163 0.5088823094004441 0.5088823094004441 0.5088823094004441 0.5088823094004441 0.5088823094004441 0.5088823094004441 0.5099925980754997 0.5099925980754997 0.5077720207253886 0.5044411547002221 0.4983345669874168 0.4933382679496669 0.4861213915618061 0.4800148038490008 0.4711324944485567 0.4622501850481125 0.44837157660991855 0.4350481125092524 0.4111769059955589 0.3900814211695041 0.3612139156180607 0.33734270910436714 0.3001480384900074 0.27239082161361955 0.23464100666173204 0.20743893412287195 0.17579570688378976 0.15303478904515172 0.12527757216876387 0.1080680977054034 0.09141376757957068 0.08863804589193189 0.08863804589193189 0.08863804589193189 0.08863804589193189 0.08863804589193189,0.8097705403404886 0.8097705403404886 0.8090303478904515 0.8090303478904515 0.8082901554404145 0.8082901554404145 0.8082901554404145 0.8082901554404145 0.8053293856402665 0.7994078460399704 0.7868245743893412 0.7742413027387121 0.7549962990377498 0.7409326424870466 0.7224278312361214 0.7076239822353811 0.6861584011843079 0.6669133974833457 0.6380458919319023 0.615099925980755 0.5810510732790526 0.5529237601776462 0.5077720207253886 0.4663212435233161 0.4034048852701703 0.35973353071798664 0.307920059215396 0.2768319763138416 0.2420429311621021 0.2190969652109549 0.1917098445595855 0.1746854182087343 0.1569207994078461 0.15396002960769806 0.15396002960769806 0.15396002960769806 0.15396002960769806 0.15470022205773504,40.0 60.0 80.0 100.0 120.0 140.0 160.0 180.0 200.0 220.0 240.0 260.0 280.0 300.0 320.0 340.0 360.0 380.0 400.0 420.0 440.0 460.0 480.0 500.0 520.0 540.0 560.0 580.0 600.0 620.0 640.0 660.0 680.0 700.0 720.0 740.0 760.0 780.0
cb_08,23.0,enc_trial,stim,response,STEM students,1456.499999952328,enc_trial,1.0,23.0,s_sh_04_1,student_shared,fold-c,laptop stand,8.0,competing,far,paired,s_sh_04_1.jpg,,student-b1,STEM students,Fine Arts students,sub-47,1.0,1.0,1.0,0.0,0.5061065877128054 0.5061065877128054 0.5061065877128054 0.5061065877128054 0.5061065877128054 0.5061065877128054 0.5061065877128054 0.5061065877128054 0.5061065877128054 0.5061065877128054 0.5061065877128054 0.5055514433752776 0.5038860103626943 0.5005551443375278 0.497779422649889 0.4933382679496669 0.4900074019245004 0.4827905255366395 0.4766839378238342 0.4672464840858623 0.4589193190229461 0.445040710584752 0.4306069578090304 0.40618060695780905 0.3845299777942265 0.3539970392301999 0.328460399703923 0.3140266469282013 0.2990377498149519 0.28737971872686896 0.271280532938564 0.2590673575129533 0.2512953367875648 0.2351961509992598 0.2224278312361214 0.2024426350851221 0.18523316062176165 0.1807920059215396 0.1791265729089563 0.1791265729089563 0.17690599555884529 0.16913397483345669 0.16302738712065135 0.15969652109548482 0.15914137675795706 0.15914137675795706 0.15914137675795706 0.15914137675795706 0.15914137675795706 0.15914137675795706 0.15914137675795706 0.15914137675795706 0.1585862324204293 0.1585862324204293 0.1585862324204293 0.1585862324204293 0.1585862324204293 0.1585862324204293 0.1585862324204293 0.1585862324204293 0.1585862324204293 0.15914137675795706,0.8112509252405625 0.8112509252405625 0.8112509252405625 0.8112509252405625 0.8112509252405625 0.8112509252405625 0.8105107327905255 0.8105107327905255 0.8105107327905255 0.8105107327905255 0.8097705403404886 0.8068097705403405 0.8023686158401184 0.7920059215396003 0.7809030347890451 0.7623982235381199 0.7461139896373057 0.7209474463360473 0.7009622501850481 0.6728349370836417 0.6506291635825314 0.616580310880829 0.5869726128793487 0.5433012583271649 0.5077720207253886 0.463360473723168 0.4263508512213176 0.4048852701702442 0.3797187268689859 0.3589933382679497 0.3293856402664693 0.307179866765359 0.2953367875647669 0.26943005181347146 0.2501850481125093 0.22205773501110293 0.19467061435973354 0.1828275351591414 0.17764618800888232 0.17690599555884534 0.17320503330866022 0.16358253145817914 0.15766099185788307 0.15321983715766094 0.15321983715766094 0.15321983715766094 0.15321983715766094 0.15321983715766094 0.15321983715766094 0.15321983715766094 0.15321983715766094 0.15321983715766094 0.15321983715766094 0.15321983715766094 0.15321983715766094 0.15321983715766094 0.15321983715766094 0.15321983715766094 0.15321983715766094 0.15321983715766094 0.15321983715766094 0.15396002960769806,85.70000000001164 105.70000000001164 125.70000000001164 145.7000000000116 165.7000000000116 185.70000000001164 205.70000000001164 225.70000000001164 245.70000000001164 265.70000000001164 285.70000000001164 305.70000000001164 325.70000000001164 345.7000000000116 365.7000000000117 385.7000000000117 405.7000000000117 425.7000000000117 445.7000000000117 465.7000000000117 485.7000000000117 505.7000000000117 525.7000000000116 545.7000000000116 565.7000000000116 585.7000000000116 605.7000000000116 625.7000000000116 645.7000000000116 665.7000000000116 685.7000000000116 705.7000000000116 725.7000000000116 745.7000000000116 765.7000000000116 785.7000000000116 805.7000000000116 825.7000000000116 845.7000000000116 865.7000000000116 885.7000000000116 905.7000000000116 925.7000000000116 945.7000000000116 965.7000000000116 985.7000000000116 1005.7000000000116 1025.7000000000116 1045.7000000000116 1065.7000000000116 1085.7000000000116 1105.7000000000116 1125.7000000000116 1145.7000000000114 1165.7000000000114 1185.7000000000114 1205.7000000000114 1225.7000000000114 1245.7000000000114 1265.7000000000114 1285.7000000000114 1305.7000000000114
cb_08,24.0,enc_trial,stim,response,Fine Arts students,877.5999999523046,enc_trial,1.0,24.0,s_a_14_2,student_art,fold-c,guitar pick,8.0,unique,far,paired,s_a_14_2.jpg,art,student-b1,STEM students,Fine Arts students,sub-47,1.0,1.0,1.0,1.0,0.4983345669874168 0.4972242783123612 0.4922279792746114 0.4866765358993338 0.4772390821613621 0.4678016284233901 0.4539230199851961 0.4467061435973353 0.4383789785344189 0.4361584011843079 0.43560325684678014 0.4422649888971133 0.4866765358993338 0.5532938564026647 0.6471132494448556 0.7092894152479644 0.7736861584011843 0.8092153960029608 0.8358623242042931 0.8425240562546261 0.8436343449296817 0.8436343449296817 0.8441894892672094 0.8441894892672094 0.8441894892672094 0.8441894892672094 0.849740932642487 0.868060695780903 0.8797187268689859 0.8836047372316802,0.8223538119911177 0.8201332346410066 0.8097705403404886 0.7942264988897113 0.7609178386380459 0.7283493708364175 0.6676535899333826 0.6180606957809031 0.5477424130273871 0.4944485566247224 0.4270910436713545 0.3730569948186528 0.2990377498149519 0.2501850481125093 0.2190969652109549 0.20799407846039966 0.19467061435973354 0.18208734270910432 0.16654330125832714 0.15988156920799412 0.1569207994078461 0.15544041450777202 0.15321983715766094 0.15321983715766094 0.15321983715766094 0.15321983715766094 0.151739452257587 0.151739452257587 0.15914137675795706 0.1650629163582531,268.5999999999767 288.5999999999767 308.5999999999767 328.5999999999767 348.59999999997666 368.59999999997666 388.59999999997666 408.59999999997666 428.59999999997666 448.59999999997666 468.59999999997666 488.59999999997666 508.59999999997666 528.5999999999766 548.5999999999766 568.5999999999767 588.5999999999767 608.5999999999767 628.5999999999767 648.5999999999767 668.5999999999767 688.5999999999768 708.5999999999768 728.5999999999768 748.5999999999768 768.5999999999768 788.5999999999768 808.5999999999768 828.5999999999768 848.5999999999768
cb_08,25.0,enc_trial,stim,response,STEM students,869.6999999046384,enc_trial,1.0,25.0,s_sh_18_1,student_shared,fold-c,wall calendar,8.0,competing,far,paired,s_sh_18_1.jpg,,student-b1,STEM students,Fine Arts students,sub-47,1.0,1.0,1.0,0.0,0.4894522575869726 0.4894522575869726 0.4894522575869726 0.4894522575869726 0.4894522575869726 0.4894522575869726 0.4872316802368616 0.4844559585492228 0.4805699481865285 0.4772390821613621 0.4727979274611399 0.4700222057735011 0.4666913397483346 0.4650259067357513 0.463360473723168 0.4616950407105848 0.4583641746854182 0.4544781643227239 0.4472612879348631 0.4394892672094745 0.4283863804589193 0.4156180606957809 0.3917468541820873 0.3739822353811991 0.3551073279052553 0.3395632864544781 0.31513693560325684 0.291820873427091 0.2546262028127313 0.2263138415988157 0.19133974833456696 0.17246484085862324 0.15470022205773498 0.14359733530717986 0.12916358253145815 0.12194670614359733 0.11861584011843078 0.11806069578090304 0.11750555144337528 0.11806069578090304 0.12139156180606955 0.12194670614359733,0.8304959289415248 0.8297557364914878 0.8282753515914137 0.8238341968911918 0.8171724648408586 0.8105107327905255 0.7979274611398963 0.7846039970392302 0.764618800888231 0.7498149518874908 0.7313101406365655 0.7194670614359733 0.7068837897853442 0.6994818652849741 0.692079940784604 0.6861584011843079 0.6772760917838638 0.6683937823834196 0.6521095484826055 0.6365655070318283 0.6121391561806069 0.5877128053293856 0.5462620281273132 0.5114729829755736 0.4678016284233901 0.4330125832716506 0.3797187268689859 0.3360473723168024 0.2857142857142857 0.2590673575129534 0.2272390821613619 0.20281273131014066 0.18208734270910432 0.17320503330866022 0.15988156920799412 0.1509992598075499 0.14655810510732792 0.14655810510732792 0.1428571428571429 0.1347150259067358 0.1295336787564767 0.12879348630643972,0.0 20.0 40.0 60.0 80.0 100.0 120.0 140.0 160.0 180.0 200.0 220.0 240.0 260.0 280.0 300.0 320.0 340.0 360.0 380.0 400.0 420.0 440.0 460.0 480.0 500.0 520.0 540.0 560.0 580.0 600.0 620.0 640.0 660.0 680.0 700.0 720.0 740.0 760.0 780.0 800.0 820.0
cb_08,26.0,enc_trial,stim,response,Fine Arts students,918.2999999046443,enc_trial,1.0,26.0,s_a_15_2,student_art,fold-d,drum kit,8.0,unique,close,paired,s_a_15_2.jpg,art,student-b1,STEM students,Fine Arts students,sub-47,1.0,1.0,1.0,1.0,0.4905625462620281 0.4905625462620281 0.4905625462620281 0.4905625462620281 0.4905625462620281 0.4905625462620281 0.4905625462620281 0.4894522575869726 0.4861213915618061 0.4827905255366395 0.4766839378238342 0.4711324944485567 0.4622501850481125 0.4555884529977794 0.445040710584752 0.4383789785344189 0.4261658031088083 0.4128423390081421 0.3823094004441155 0.3567727609178386 0.3351221317542561 0.3362324204293116 0.3850851221317543 0.4422649888971133 0.5227609178386381 0.5760547742413027 0.6376757957068837 0.6787564766839378 0.7259437453737971 0.7542561065877128 0.7853441894892672 0.7992227979274611 0.8081051073279052 0.8097705403404885 0.810880829015544 0.8186528497409326 0.8308660251665433 0.845299777942265 0.8725018504811249 0.8902664692820133 0.9019245003700962 0.902479644707624 0.902479644707624,0.8112509252405625 0.8112509252405625 0.8112509252405625 0.8112509252405625 0.8112509252405625 0.8105107327905255 0.8097705403404886 0.8068097705403405 0.7949666913397484 0.7831236121391562 0.7623982235381199 0.7431532198371577 0.7120651369356032 0.6868985936343449 0.6521095484826055 0.6291635825314581 0.5980754996299038 0.5736491487786824 0.535899333826795 0.5033308660251665 0.4618800888230941 0.37749814951887495 0.2886750555144337 0.2442635085122131 0.20355292376017764 0.1783863804589193 0.14951887490747595 0.1339748334566987 0.12139156180606958 0.11769059955588455 0.11472982975573652 0.11250925240562548 0.10880829015544048 0.10806809770540338 0.1073279052553664 0.10584752035529232 0.10066617320503336 0.09252405625462624 0.08438193930421911 0.0888230940044411 0.10066617320503336 0.10806809770540338 0.11028867505551444,45.70000000001164 65.70000000001164 85.70000000001164 105.70000000001164 125.70000000001164 145.7000000000116 165.7000000000116 185.70000000001164 205.70000000001164 225.70000000001164 245.70000000001164 265.70000000001164 285.70000000001164 305.70000000001164 325.70000000001164 345.7000000000116 365.7000000000117 385.7000000000117 405.7000000000117 425.7000000000117 445.7000000000117 465.7000000000117 485.7000000000117 505.7000000000117 525.7000000000116 545.7000000000116 565.7000000000116 585.7000000000116 605.7000000000116 625.7000000000116 645.7000000000116 665.7000000000116 685.7000000000116 705.7000000000116 725.7000000000116 745.7000000000116 765.7000000000116 785.7000000000116 805.7000000000116 825.7000000000116 845.7000000000116 865.7000000000116 885.7000000000116
cb_08,27.0,enc_trial,stim,response,STEM students,814.6999999523105,enc_trial,1.0,27.0,s_sh_16_1,student_shared,fold-a,stapler,8.0,competing,close,paired,s_sh_16_1.jpg,,student-b1,STEM students,Fine Arts students,sub-47,1.0,1.0,1.0,0.0,0.5049962990377498 0.5049962990377498 0.5049962990377498 0.5049962990377498 0.5049962990377498 0.5049962990377498 0.5049962990377498 0.5033308660251665 0.5016654330125833 0.4988897113249445 0.4972242783123612 0.4938934122871947 0.4911176905995559 0.4866765358993338 0.4827905255366395 0.4755736491487787 0.4694670614359733 0.4583641746854182 0.44837157660991855 0.43005181347150256 0.4139526276831976 0.3939674315321984 0.3778682457438934 0.35566247224278313 0.33345669874167283 0.3051443375277572 0.2796076980014804 0.2468541820873427 0.22020725388601034 0.19300518134715025 0.17635085122131752 0.1624722427831236 0.1508142116950407 0.1402664692820133 0.13749074759437452 0.13749074759437452 0.13693560325684676 0.13638045891931902,0.8327165062916358 0.8327165062916358 0.8327165062916358 0.8319763138415988 0.8319763138415988 0.8312361213915618 0.8304959289415248 0.8253145817912657 0.8156920799407846 0.7994078460399704 0.7860843819393042 0.7638786084381939 0.7475943745373796 0.7224278312361214 0.7054034048852702 0.6787564766839378 0.6587712805329385 0.6299037749814952 0.6069578090303479 0.5721687638786084 0.5455218356772761 0.5085122131754256 0.4781643227239082 0.4359733530717986 0.3937823834196891 0.34122871946706146 0.30125832716506296 0.2583271650629163 0.22501850481125096 0.1872686898593634 0.16284233900814216 0.14507772020725385 0.13545521835677274 0.12879348630643972 0.12805329385640266 0.12805329385640266 0.12805329385640266 0.12879348630643972,22.799999999988362 42.79999999998836 62.79999999998836 82.79999999998834 102.79999999998834 122.79999999998834 142.7999999999883 162.7999999999883 182.79999999998836 202.79999999998836 222.79999999998836 242.79999999998836 262.7999999999883 282.7999999999883 302.7999999999883 322.7999999999883 342.7999999999883 362.7999999999883 382.7999999999883 402.7999999999883 422.7999999999883 442.7999999999883 462.7999999999883 482.7999999999883 502.7999999999882 522.7999999999881 542.7999999999881 562.7999999999881 582.7999999999882 602.7999999999882 622.7999999999882 642.7999999999882 662.7999999999882 682.7999999999882 702.7999999999882 722.7999999999882 742.7999999999882 762.7999999999882
cb_08,28.0,enc_trial,stim,response,STEM students,854.4999999046267,enc_trial,1.0,28.0,s_sh_11_1,student_shared,fold-b-single,pencil case,8.0,competing,,single,s_sh_11_1.jpg,,student-b1,STEM students,Fine Arts students,sub-47,1.0,,1.0,,0.5033308660251665 0.5033308660251665 0.5033308660251665 0.5016654330125833 0.4988897113249445 0.4966691339748335 0.4927831236121392 0.4888971132494449 0.4850111028867505 0.4772390821613621 0.4705773501110289 0.4655810510732791 0.461139896373057 0.4533678756476684 0.4467061435973353 0.4361584011843079 0.424500370096225 0.4089563286454478 0.3984085862324204 0.3923019985196151 0.3850851221317543 0.36787564766839376 0.3478904515173945 0.31513693560325684 0.2929311621021465 0.2618430792005921 0.2379718726868986 0.21076980014803848 0.19800148038490006 0.1885640266469282 0.18245743893412286 0.17579570688378976 0.17079940784603995 0.15747594374537374 0.1469282013323464 0.13415988156920794 0.12860843819393042 0.1274981495188749,0.8208734270910436 0.8201332346410066 0.8201332346410066 0.8149518874907475 0.8053293856402665 0.7964470762398224 0.7816432272390822 0.767579570688379 0.7520355292376018 0.7261287934863064 0.6950407105847521 0.6691339748334567 0.6439674315321984 0.6106587712805329 0.5862324204293117 0.5529237601776462 0.5292376017764621 0.4966691339748335 0.463360473723168 0.4426350851221318 0.4226498889711325 0.3923019985196151 0.36787564766839376 0.3301258327165063 0.307179866765359 0.28349370836417465 0.2716506291635825 0.2575869726128793 0.2494448556624722 0.2398223538119912 0.23019985196150994 0.2183567727609178 0.21095484826054767 0.19467061435973354 0.17912657290895628 0.16358253145817914 0.15766099185788307 0.156180606957809,28.39999999999418 48.39999999999418 68.39999999999418 88.39999999999418 108.39999999999418 128.39999999999418 148.39999999999418 168.39999999999418 188.39999999999415 208.39999999999415 228.39999999999415 248.39999999999415 268.3999999999942 288.3999999999942 308.3999999999942 328.3999999999942 348.3999999999942 368.3999999999942 388.3999999999942 408.3999999999942 428.3999999999942 448.3999999999942 468.3999999999942 488.3999999999942 508.3999999999942 528.3999999999942 548.3999999999942 568.3999999999943 588.3999999999943 608.3999999999943 628.3999999999943 648.3999999999943 668.3999999999943 688.3999999999942 708.3999999999942 728.3999999999942 748.3999999999942 768.3999999999942
cb_08,29.0,enc_trial,stim,response,STEM students,860.2000000000116,enc_trial,1.0,29.0,s_sh_13_1,student_shared,fold-b-single,index cards,8.0,competing,,single,s_sh_13_1.jpg,,student-b1,STEM students,Fine Arts students,sub-47,1.0,,1.0,,0.4994448556624722 0.4994448556624722 0.4994448556624722 0.4994448556624722 0.4994448556624722 0.4994448556624722 0.4994448556624722 0.4994448556624722 0.4994448556624722 0.4994448556624722 0.4994448556624722 0.4994448556624722 0.4983345669874168 0.4961139896373057 0.4933382679496669 0.4872316802368616 0.4800148038490008 0.4655810510732791 0.4533678756476684 0.43560325684678014 0.422279792746114 0.4034048852701703 0.3778682457438934 0.3378978534418949 0.3056994818652849 0.2612879348630644 0.2307549962990377 0.19411547002220567 0.1741302738712065 0.1624722427831236 0.16025166543301256 0.15692079940784606 0.15358993338267948 0.14637305699481865 0.1402664692820133 0.13415988156920794 0.12971872686898592 0.12305699481865286 0.11861584011843078 0.11639526276831975,0.8134715025906736 0.8134715025906736 0.8134715025906736 0.8134715025906736 0.8134715025906736 0.8127313101406366 0.8119911176905996 0.8112509252405625 0.8090303478904515 0.8016284233900814 0.7934863064396743 0.7786824574389342 0.7638786084381939 0.7416728349370836 0.7202072538860104 0.6891191709844561 0.6639526276831976 0.6291635825314581 0.6032568467801629 0.5699481865284974 0.544041450777202 0.5144337527757217 0.4796447076239823 0.4337527757216877 0.3960029607698001 0.3478904515173945 0.3175425610658771 0.28349370836417465 0.2635085122131754 0.2472242783123613 0.2376017764618801 0.2227979274611399 0.21317542561065872 0.19985196150999265 0.19022945965951146 0.1783863804589193 0.1695040710584752 0.15766099185788307 0.1509992598075499 0.14951887490747595,45.60000000000582 65.60000000000582 85.6000000000058 105.60000000000582 125.60000000000582 145.60000000000582 165.60000000000582 185.60000000000585 205.60000000000585 225.60000000000585 245.60000000000585 265.6000000000058 285.6000000000058 305.6000000000058 325.6000000000058 345.6000000000058 365.6000000000058 385.6000000000058 405.6000000000058 425.6000000000058 445.6000000000058 465.6000000000058 485.6000000000058 505.6000000000058 525.6000000000058 545.6000000000058 565.6000000000057 585.6000000000057 605.6000000000057 625.6000000000057 645.6000000000057 665.6000000000057 685.6000000000057 705.6000000000058 725.6000000000058 745.6000000000058 765.6000000000058 785.6000000000058 805.6000000000058 825.6000000000058
cb_08,30.0,enc_trial,stim,response,STEM students,854.6999999046384,enc_trial,1.0,30.0,s_sh_09_2,student_shared,fold-c,paper clips,8.0,competing,far,paired,s_sh_09_2.jpg,,student-b1,STEM students,Fine Arts students,sub-47,0.0,0.0,1.0,0.0,0.5077720207253886 0.5077720207253886 0.5072168763878608 0.5055514433752776 0.5038860103626943 0.5033308660251665 0.5027757216876387 0.502220577350111 0.5 0.4988897113249445 0.4966691339748335 0.495558845299778 0.4938934122871947 0.4933382679496669 0.4927831236121392 0.4922279792746114 0.4922279792746114 0.4916728349370837 0.4911176905995559 0.4888971132494449 0.4861213915618061 0.4811250925240563 0.4739082161361954 0.4600296076980015 0.4444855662472243 0.4167283493708364 0.38619541080680975 0.3428941524796447 0.3084752035529237 0.2635085122131754 0.2285344189489267 0.1896743153219837 0.1635825314581791 0.14193190229459654 0.13082901554404144 0.12139156180606955 0.11417468541820873 0.10751295336787564 0.10640266469282013 0.10640266469282013 0.10640266469282013 0.10584752035529237 0.10584752035529237,0.8297557364914878 0.8290155440414508 0.8275351591413768 0.8171724648408586 0.8008882309400445 0.7868245743893412 0.764618800888231 0.7461139896373057 0.7216876387860844 0.7039230199851961 0.6809770540340488 0.6706143597335308 0.6624722427831236 0.6535899333826796 0.6476683937823835 0.6417468541820873 0.6380458919319023 0.6321243523316062 0.6269430051813472 0.6180606957809031 0.609178386380459 0.5973353071798668 0.5869726128793487 0.5699481865284974 0.5529237601776462 0.5255366395262768 0.4966691339748335 0.4470762398223538 0.4056254626202813 0.3545521835677277 0.31902294596595115 0.2812731310140637 0.2538860103626943 0.22945965951147296 0.21687638786084384 0.2050333086602517 0.19541080680977047 0.18134715025906734 0.17616580310880825 0.17616580310880825 0.17616580310880825 0.17616580310880825 0.17542561065877127,5.7000000000116415 25.700000000011638 45.70000000001164 65.70000000001164 85.70000000001164 105.70000000001164 125.70000000001164 145.7000000000116 165.7000000000116 185.70000000001164 205.70000000001164 225.70000000001164 245.70000000001164 265.70000000001164 285.70000000001164 305.70000000001164 325.70000000001164 345.7000000000116 365.7000000000117 385.7000000000117 405.7000000000117 425.7000000000117 445.7000000000117 465.7000000000117 485.7000000000117 505.7000000000117 525.7000000000116 545.7000000000116 565.7000000000116 585.7000000000116 605.7000000000116 625.7000000000116 645.7000000000116 665.7000000000116 685.7000000000116 705.7000000000116 725.7000000000116 745.7000000000116 765.7000000000116 785.7000000000116 805.7000000000116 825.7000000000116 845.7000000000116
cb_08,31.0,enc_trial,stim,response,STEM students,1260.5000000953733,enc_trial,1.0,31.0,s_sh_23_1,student_shared,fold-a,ballpoint pen,8.0,competing,close,paired,s_sh_23_1.jpg,,student-b1,STEM students,Fine Arts students,sub-47,1.0,1.0,0.0,1.0,0.5077720207253886 0.5077720207253886 0.5077720207253886 0.5077720207253886 0.5077720207253886 0.5077720207253886 0.5077720207253886 0.5077720207253886 0.5083271650629163 0.5083271650629163 0.5083271650629163 0.5083271650629163 0.5077720207253886 0.5072168763878608 0.5055514433752776 0.5033308660251665 0.4983345669874168 0.4927831236121392 0.4827905255366395 0.4750185048112509 0.4655810510732791 0.4589193190229461 0.4511472982975573 0.4439304219096965 0.43005181347150256 0.4161732050333087 0.3967431532198372 0.3823094004441155 0.3645447816432272 0.3512213175425611 0.33401184307920057 0.3223538119911177 0.3156920799407846 0.3129163582531458 0.3073649148778682 0.30347890451517395 0.2990377498149519 0.2940414507772021 0.2790525536639526 0.2635085122131754 0.2435233160621761 0.22964470762398226 0.21076980014803848 0.19800148038490006 0.18245743893412286 0.173019985196151 0.16413767579570687 0.1624722427831236 0.1624722427831236 0.16136195410806808 0.15747594374537374 0.15358993338267948 0.15025906735751293 0.14859363434492967 0.1480384900074019 0.1480384900074019 0.1480384900074019 0.14859363434492967 0.14859363434492967,0.8112509252405625 0.8112509252405625 0.8105107327905255 0.8097705403404886 0.8090303478904515 0.8082901554404145 0.8001480384900074 0.7942264988897113 0.7875647668393783 0.7838638045891932 0.7764618800888231 0.7705403404885269 0.7609178386380459 0.7520355292376018 0.7372316802368616 0.7246484085862324 0.7046632124352332 0.688378978534419 0.6661732050333087 0.6506291635825314 0.6321243523316062 0.6202812731310141 0.6054774241302738 0.5921539600296077 0.5699481865284974 0.5499629903774981 0.5188749074759438 0.4937083641746854 0.4581791265729089 0.4337527757216877 0.4063656550703183 0.3930421909696521 0.387120651369356 0.384900074019245 0.3797187268689859 0.3752775721687639 0.36935603256846783 0.36269430051813467 0.3427091043671354 0.32420429311621024 0.29755736491487783 0.2783123612139157 0.2501850481125093 0.22575869726128794 0.1976313841598816 0.1865284974093264 0.17912657290895628 0.1739452257586973 0.16876387860843822 0.16358253145817914 0.15914137675795706 0.156180606957809 0.15396002960769806 0.15321983715766094 0.151739452257587 0.151739452257587 0.15247964470762398 0.15396002960769806 0.15470022205773504,11.600000000005819 31.60000000000582 51.60000000000582 71.6000000000058 91.60000000000582 111.60000000000582 131.60000000000582 151.60000000000582 171.60000000000582 191.60000000000585 211.60000000000585 231.60000000000585 251.60000000000585 271.6000000000058 291.6000000000058 311.6000000000058 331.6000000000058 351.6000000000058 371.6000000000058 391.6000000000058 411.6000000000058 431.6000000000058 451.6000000000058 471.6000000000058 491.6000000000058 511.6000000000058 531.6000000000058 551.6000000000058 571.6000000000057 591.6000000000057 611.6000000000057 631.6000000000057 651.6000000000057 671.6000000000057 691.6000000000058 711.6000000000058 731.6000000000058 751.6000000000058 771.6000000000058 791.6000000000058 811.6000000000058 831.6000000000058 851.6000000000058 871.6000000000058 891.6000000000058 911.6000000000058 931.6000000000058 951.6000000000058 971.6000000000058 991.6000000000058 1011.6000000000058 1031.6000000000058 1051.6000000000058 1071.6000000000058 1091.6000000000058 1111.6000000000058 1131.6000000000058 1151.6000000000058 1171.6000000000058
cb_08,32.0,enc_trial,stim,response,Fine Arts students,879.7999999999884,enc_trial,1.0,32.0,s_a_12_1,student_art,fold-c,saxophone,8.0,unique,far,paired,s_a_12_1.jpg,art,student-b1,STEM students,Fine Arts students,sub-47,1.0,1.0,1.0,1.0,0.5 0.5 0.5 0.5 0.5 0.5 0.5 0.4983345669874168 0.497779422649889 0.4972242783123612 0.4950037009622502 0.4927831236121392 0.4855662472242783 0.4766839378238342 0.4655810510732791 0.4467061435973353 0.4178386380458921 0.3945225758697261 0.3739822353811991 0.3478904515173945 0.3312361213915618 0.3295706883789785 0.3567727609178386 0.4261658031088083 0.4927831236121392 0.5960399703923019 0.6754256106587713 0.7725758697261288 0.8242042931162101 0.8663952627683197 0.8752775721687638 0.8758327165062916 0.8763878608438194 0.8797187268689859 0.8830495928941524 0.8902664692820133 0.8924870466321243 0.8924870466321243 0.8924870466321243 0.8930421909696521 0.8930421909696521,0.8171724648408586 0.8171724648408586 0.8171724648408586 0.8171724648408586 0.8164322723908216 0.8156920799407846 0.8142116950407106 0.8082901554404145 0.7957068837897854 0.7831236121391562 0.7594374537379719 0.7379718726868986 0.7031828275351591 0.6743153219837157 0.6424870466321244 0.5965951147298297 0.5433012583271649 0.5025906735751295 0.4626202812731311 0.40858623242042935 0.3656550703182827 0.30125832716506296 0.26202812731310143 0.231680236861584 0.2146558105107328 0.1880088823094005 0.16876387860843822 0.15321983715766094 0.151739452257587 0.151739452257587 0.151739452257587 0.151739452257587 0.15321983715766094 0.15766099185788307 0.15988156920799412 0.16284233900814216 0.16432272390821612 0.16432272390821612 0.1650629163582531 0.16728349370836415 0.16802368615840113,45.69999999998254 65.69999999998254 85.69999999998255 105.69999999998255 125.69999999998255 145.69999999998254 165.69999999998254 185.69999999998254 205.69999999998254 225.69999999998254 245.69999999998254 265.69999999998254 285.6999999999825 305.6999999999825 325.6999999999825 345.69999999998254 365.69999999998254 385.69999999998254 405.69999999998254 425.69999999998254 445.69999999998254 465.69999999998254 485.69999999998254 505.69999999998254 525.6999999999825 545.6999999999825 565.6999999999825 585.6999999999825 605.6999999999825 625.6999999999825 645.6999999999825 665.6999999999825 685.6999999999825 705.6999999999824 725.6999999999824 745.6999999999824 765.6999999999824 785.6999999999824 805.6999999999824 825.6999999999824 845.6999999999824
cb_08,33.0,enc_trial,stim,response,Fine Arts students,1702.7000000000116,enc_trial,1.0,33.0,s_sh_16_2,student_shared,fold-a,stapler,8.0,competing,close,paired,s_sh_16_2.jpg,,student-b1,STEM students,Fine Arts students,sub-47,1.0,1.0,1.0,0.0,0.4933382679496669 0.4933382679496669 0.4933382679496669 0.4933382679496669 0.4933382679496669 0.4933382679496669 0.4933382679496669 0.4922279792746114 0.4911176905995559 0.4877868245743893 0.4844559585492228 0.4772390821613621 0.4694670614359733 0.4572538860103627 0.4478164322723908 0.4322723908216136 0.4195040710584752 0.3972982975573649 0.3817542561065877 0.3589933382679497 0.3434492968171725 0.3201332346410067 0.3045891931902295 0.2796076980014804 0.2612879348630644 0.23575129533678754 0.2224278312361214 0.2091043671354552 0.2013323464100666 0.19300518134715025 0.18800888230940044 0.1819022945965951 0.18023686158401184 0.1791265729089563 0.1868985936343449 0.21521095484826053 0.25018504811250925 0.30292376017764616 0.33345669874167283 0.362879348630644 0.38786084381939306 0.4233900814211695 0.4405995558845301 0.4411547002220577 0.4289415247964471 0.3873056994818653 0.3378978534418949 0.25296076980014803 0.19411547002220567 0.14748334566987414 0.14193190229459654 0.14193190229459654 0.14914877868245746 0.17857142857142855 0.2257586972612879 0.3212435233160621 0.4161732050333087 0.5277572168763879 0.6065877128053293 0.6915247964470762 0.7376017764618801 0.7770170244263508 0.7920059215396003 0.7997779422649889 0.7997779422649889 0.8014433752775721 0.8053293856402665 0.8058845299777941 0.8058845299777941 0.8081051073279052 0.8158771280532938 0.8242042931162101 0.8247594374537379 0.8247594374537379 0.8253145817912657 0.8330866025166542 0.8375277572168763 0.8380829015544041 0.8386380458919318 0.8425240562546261 0.8486306439674315 0.8514063656550702,0.8149518874907475 0.8149518874907475 0.8142116950407106 0.8127313101406366 0.8075499629903775 0.7994078460399704 0.7905255366395263 0.7735011102886751 0.7609178386380459 0.7409326424870466 0.7246484085862324 0.6980014803849001 0.6757957068837898 0.6454478164322723 0.6232420429311619 0.5906735751295337 0.5684678016284234 0.535159141376758 0.5114729829755736 0.4715025906735752 0.4426350851221318 0.4048852701702442 0.3834196891191711 0.3493708364174686 0.3256846780162842 0.2894152479644707 0.26572908956328645 0.23834196891191706 0.21983715766099188 0.1991117690599556 0.1872686898593634 0.17542561065877127 0.1695040710584752 0.16136195410806808 0.15025906735751293 0.14433752775721687 0.14581791265729094 0.15025906735751293 0.151739452257587 0.14803849000740188 0.1421169504071058 0.14063656550703185 0.1428571428571429 0.14359733530717989 0.14433752775721687 0.14581791265729094 0.14951887490747595 0.156180606957809 0.156180606957809 0.151739452257587 0.14951887490747595 0.14951887490747595 0.14655810510732792 0.13915618060695778 0.12879348630643972 0.12287194670614356 0.12287194670614356 0.12657290895632867 0.12805329385640266 0.13175425610658775 0.13545521835677274 0.14063656550703185 0.1428571428571429 0.1428571428571429 0.1428571428571429 0.1428571428571429 0.1428571428571429 0.14359733530717989 0.14359733530717989 0.14359733530717989 0.14507772020725385 0.14877868245743894 0.14951887490747595 0.14951887490747595 0.14951887490747595 0.15025906735751293 0.151739452257587 0.15247964470762398 0.15247964470762398 0.15247964470762398 0.15247964470762398 0.15396002960769806,39.900000000023276 59.900000000023276 79.90000000002328 99.90000000002328 119.90000000002328 139.90000000002328 159.90000000002328 179.90000000002328 199.90000000002328 219.90000000002328 239.90000000002328 259.9000000000233 279.9000000000233 299.9000000000233 319.9000000000233 339.9000000000233 359.90000000002334 379.90000000002334 399.90000000002334 419.90000000002334 439.90000000002334 459.90000000002334 479.90000000002334 499.90000000002334 519.9000000000234 539.9000000000234 559.9000000000234 579.9000000000233 599.9000000000233 619.9000000000233 639.9000000000233 659.9000000000233 679.9000000000233 699.9000000000232 719.9000000000232 739.9000000000232 759.9000000000232 779.9000000000232 799.9000000000232 819.9000000000232 839.9000000000232 859.9000000000232 879.9000000000232 899.9000000000232 919.9000000000232 939.9000000000232 959.9000000000232 979.9000000000232 999.9000000000232 1019.9000000000232 1039.9000000000233 1059.9000000000233 1079.9000000000233 1099.9000000000233 1119.9000000000233 1139.9000000000233 1159.9000000000233 1179.9000000000233 1199.9000000000233 1219.9000000000233 1239.9000000000233 1259.9000000000233 1279.9000000000233 1299.9000000000233 1319.9000000000233 1339.9000000000233 1359.9000000000233 1379.9000000000233 1399.9000000000233 1419.9000000000233 1439.9000000000233 1459.9000000000233 1479.9000000000233 1499.9000000000233 1519.9000000000233 1539.9000000000233 1559.9000000000233 1579.9000000000233 1599.9000000000233 1619.9000000000233 1639.9000000000233 1659.9000000000233
