Current Spreadsheet,Trial Number,Display,Screen,Response Type,Response,Reaction Time,display,block,block_trial,stimulus_id,expected_goal,fold,stimulus_name,c_group,condition,within_block_dist,paired_status,stimulus_path,expected_location,block_split,respStim_1,respStim_2,sub_label,acc,both_enc_acc,assoc_stim1_acc,assoc_stim2_acc,x_pos,y_pos,time_trajectories
cb_04,1.0,enc_trial,stim,response,STEM students,1159.5000000014845,enc_trial,1.0,1.0,s_s_12_1,student_stem,fold-a,robotic arm,4.0,unique,close,paired,s_s_12_1.jpg,stem,student-b1,STEM students,Fine Arts students,sub-37,1.0,1.0,1.0,1.0,0.5048611111111111 0.5034722222222222 0.5027777777777778 0.5020833333333333 0.5020833333333333 0.5013888888888889 0.5013888888888889 0.5013888888888889 0.5013888888888889 0.5020833333333333 0.50625 0.5076388888888889 0.5083333333333333 0.5090277777777777 0.5111111111111111 0.5131944444444444 0.5145833333333333 0.5145833333333333 0.5152777777777777 0.5159722222222223 0.5173611111111112 0.5215277777777778 0.5256944444444445 0.5263888888888889 0.5270833333333333 0.5270833333333333 0.5236111111111111 0.51875 0.5104166666666666 0.4930555555555556 0.4611111111111112 0.40902777777777777 0.3784722222222222 0.35208333333333336 0.325 0.2923611111111111 0.2923611111111111 0.29444444444444445 0.2972222222222222 0.2972222222222222 0.2902777777777778 0.2888888888888889 0.2833333333333333 0.2743055555555556 0.2576388888888889 0.24097222222222225 0.2152777777777778 0.20416666666666666 0.18888888888888888 0.16875 0.14652777777777778 0.14027777777777778 0.1375 0.13680555555555554,0.8425925925925926 0.837962962962963 0.8342592592592593 0.8305555555555555 0.8277777777777777 0.825925925925926 0.8240740740740741 0.8222222222222222 0.8185185185185185 0.8138888888888889 0.8 0.7972222222222223 0.7944444444444445 0.7898148148148147 0.7814814814814814 0.7638888888888888 0.7592592592592593 0.7574074074074074 0.7537037037037038 0.7472222222222222 0.7361111111111112 0.7083333333333333 0.6898148148148149 0.6796296296296296 0.6703703703703704 0.6546296296296297 0.6018518518518519 0.5675925925925926 0.537962962962963 0.500925925925926 0.4518518518518518 0.3851851851851852 0.3472222222222222 0.3194444444444444 0.2962962962962963 0.2620370370370371 0.25555555555555554 0.25277777777777777 0.25 0.2490740740740741 0.2407407407407407 0.2305555555555555 0.21018518518518514 0.20092592592592595 0.1944444444444444 0.1907407407407408 0.18148148148148147 0.1787037037037037 0.1787037037037037 0.18148148148148147 0.18148148148148147 0.1805555555555556 0.17962962962962958 0.17962962962962958,83.39999999999421 103.39999999999421 123.39999999999421 143.39999999999418 163.39999999999418 183.3999999999942 203.3999999999942 223.3999999999942 243.3999999999942 263.3999999999942 283.3999999999942 303.3999999999942 323.3999999999942 343.3999999999942 363.3999999999942 383.3999999999942 403.3999999999942 423.3999999999942 443.3999999999942 463.3999999999942 483.3999999999942 503.3999999999942 523.3999999999942 543.3999999999942 563.3999999999943 583.3999999999943 603.3999999999943 623.3999999999943 643.3999999999943 663.3999999999943 683.3999999999943 703.3999999999942 723.3999999999942 743.3999999999942 763.3999999999942 783.3999999999942 803.3999999999942 823.3999999999942 843.3999999999942 863.3999999999942 883.3999999999942 903.3999999999942 923.3999999999942 943.3999999999942 963.3999999999942 983.3999999999942 1003.3999999999942 1023.3999999999942 1043.3999999999942 1063.3999999999942 1083.3999999999942 1103.3999999999942 1123.3999999999942 1143.3999999999942
cb_04,2.0,enc_trial,stim,response,STEM students,1007.999999999258,enc_trial,1.0,2.0,s_s_07_1,student_stem,fold-b-single,periodic table,4.0,unique,,single,s_s_07_1.jpg,stem,student-b1,STEM students,Fine Arts students,sub-37,1.0,,1.0,,0.5027777777777778 0.5048611111111111 0.5055555555555555 0.5069444444444444 0.5083333333333333 0.5118055555555555 0.5138888888888888 0.5166666666666667 0.5201388888888889 0.5256944444444445 0.5305555555555556 0.5333333333333333 0.5381944444444444 0.5472222222222223 0.5548611111111111 0.5555555555555556 0.5513888888888889 0.5444444444444444 0.5361111111111111 0.5194444444444445 0.4583333333333333 0.4291666666666665 0.4 0.3659722222222222 0.33611111111111114 0.275 0.25 0.21736111111111112 0.1986111111111111 0.18263888888888888 0.16180555555555556 0.15208333333333332 0.1451388888888889 0.1375 0.13194444444444445 0.13055555555555556,0.8296296296296296 0.8277777777777777 0.8268518518518518 0.825925925925926 0.8240740740740741 0.8222222222222222 0.8194444444444444 0.8148148148148149 0.8092592592592592 0.799074074074074 0.7888888888888889 0.7814814814814814 0.7666666666666666 0.7435185185185185 0.7212962962962963 0.6759259259259259 0.6648148148148147 0.6444444444444444 0.6222222222222222 0.587037037037037 0.4990740740740741 0.4601851851851851 0.4166666666666666 0.37222222222222223 0.33518518518518514 0.26481481481481484 0.2361111111111112 0.2064814814814815 0.19166666666666665 0.18148148148148147 0.16481481481481486 0.15555555555555556 0.14814814814814814 0.13981481481481484 0.13240740740740742 0.13055555555555556,200.0 220.0 240.0 260.0 280.0 300.0 320.0 340.0 360.0 380.0 400.0 420.0 440.0 460.0 480.0 500.0 520.0 540.0 560.0 580.0 600.0 620.0 640.0 660.0 680.0 700.0 720.0 740.0 760.0 780.0 800.0 820.0 840.0 860.0 880.0 900.0
cb_04,3.0,enc_trial,stim,response,STEM students,1513.5999999992493,enc_trial,1.0,3.0,s_sh_23_1,student_shared,fold-a,ballpoint pen,4.0,competing,far,paired,s_sh_23_1.jpg,,student-b1,STEM students,Fine Arts students,sub-37,1.0,1.0,0.0,0.0,0.5013888888888889 0.5041666666666667 0.50625 0.50625 0.50625 0.50625 0.50625 0.50625 0.50625 0.50625 0.50625 0.50625 0.5097222222222222 0.5152777777777777 0.5215277777777778 0.5284722222222222 0.5284722222222222 0.5243055555555556 0.5138888888888888 0.4958333333333334 0.4388888888888889 0.41458333333333336 0.3930555555555556 0.36875 0.35 0.3138888888888889 0.3125 0.31666666666666665 0.3326388888888889 0.3527777777777778 0.4256944444444444 0.5104166666666666 0.56875 0.625 0.6715277777777777 0.7451388888888889 0.7805555555555556 0.7951388888888888 0.8034722222222223 0.8076388888888889 0.8180555555555555 0.8236111111111111 0.8277777777777777 0.8284722222222223 0.8284722222222223 0.8354166666666667 0.8388888888888889 0.8375 0.8208333333333333 0.7597222222222222 0.7104166666666667 0.5895833333333333 0.5069444444444444 0.40902777777777777 0.32083333333333336 0.2576388888888889 0.17847222222222225 0.1451388888888889 0.13680555555555554 0.1361111111111111 0.1361111111111111 0.1326388888888889 0.12152777777777778 0.11736111111111112 0.11666666666666667,0.8268518518518518 0.8194444444444444 0.8111111111111111 0.8083333333333333 0.8083333333333333 0.8083333333333333 0.8083333333333333 0.8083333333333333 0.8083333333333333 0.8083333333333333 0.8083333333333333 0.8083333333333333 0.7916666666666666 0.7638888888888888 0.7277777777777779 0.6351851851851852 0.587962962962963 0.5425925925925925 0.500925925925926 0.4657407407407408 0.38796296296296295 0.3583333333333333 0.33518518518518514 0.3157407407407408 0.3027777777777778 0.2685185185185185 0.2518518518518519 0.2361111111111112 0.21851851851851856 0.2129629629629629 0.2 0.18148148148148147 0.17129629629629628 0.16296296296296298 0.15740740740740744 0.14629629629629626 0.1333333333333333 0.12592592592592589 0.12037037037037035 0.1166666666666667 0.10925925925925928 0.1074074074074074 0.1074074074074074 0.1074074074074074 0.1074074074074074 0.1074074074074074 0.11111111111111116 0.1148148148148148 0.12407407407407413 0.14537037037037034 0.1527777777777778 0.14907407407407405 0.14907407407407405 0.1694444444444444 0.19259259259259254 0.19907407407407407 0.2 0.20185185185185184 0.20185185185185184 0.20092592592592595 0.1962962962962963 0.1907407407407408 0.18148148148148147 0.1777777777777778 0.17592592592592593,216.79999999998842 236.79999999998842 256.7999999999884 276.7999999999884 296.79999999998836 316.79999999998836 336.79999999998836 356.7999999999884 376.7999999999884 396.7999999999884 416.7999999999884 436.7999999999884 456.7999999999884 476.7999999999884 496.7999999999884 516.7999999999884 536.7999999999884 556.7999999999884 576.7999999999884 596.7999999999884 616.7999999999884 636.7999999999884 656.7999999999884 676.7999999999884 696.7999999999884 716.7999999999884 736.7999999999884 756.7999999999884 776.7999999999884 796.7999999999884 816.7999999999884 836.7999999999884 856.7999999999884 876.7999999999884 896.7999999999884 916.7999999999884 936.7999999999884 956.7999999999884 976.7999999999884 996.7999999999884 1016.7999999999884 1036.7999999999884 1056.7999999999884 1076.7999999999884 1096.7999999999884 1116.7999999999884 1136.7999999999886 1156.7999999999886 1176.7999999999886 1196.7999999999886 1216.7999999999886 1236.7999999999886 1256.7999999999886 1276.7999999999886 1296.7999999999886 1316.7999999999886 1336.7999999999886 1356.7999999999886 1376.7999999999884 1396.7999999999884 1416.7999999999884 1436.7999999999884 1456.7999999999884 1476.7999999999884 1496.7999999999884
cb_04,4.0,enc_trial,stim,response,STEM students,1575.600000000748,enc_trial,1.0,4.0,s_s_12_2,student_stem,fold-a,robotic arm,4.0,unique,close,paired,s_s_12_2.jpg,stem,student-b1,STEM students,Fine Arts students,sub-37,1.0,1.0,1.0,1.0,0.5020833333333333 0.5020833333333333 0.5013888888888889 0.5013888888888889 0.5013888888888889 0.5006944444444444 0.5006944444444444 0.5006944444444444 0.5006944444444444 0.5006944444444444 0.5 0.4993055555555556 0.4986111111111111 0.4972222222222222 0.4958333333333334 0.4861111111111111 0.4708333333333333 0.4569444444444444 0.44027777777777777 0.4215277777777778 0.38125 0.3625 0.3284722222222222 0.3090277777777778 0.2881944444444444 0.25555555555555554 0.23680555555555555 0.21875 0.20069444444444445 0.18819444444444444 0.17291666666666666 0.16944444444444445 0.1673611111111111 0.16666666666666666 0.16597222222222222 0.16527777777777775 0.1638888888888889 0.16180555555555556 0.16111111111111112 0.16041666666666668 0.1597222222222222 0.1597222222222222 0.1597222222222222 0.1597222222222222 0.1597222222222222 0.1597222222222222 0.15902777777777774 0.15763888888888888 0.15625 0.15555555555555556 0.15416666666666667 0.15347222222222226 0.15347222222222226 0.15347222222222226 0.15347222222222226 0.15347222222222226 0.15347222222222226 0.15347222222222226 0.15347222222222226 0.15347222222222226 0.15347222222222226 0.15347222222222226 0.15416666666666667 0.16111111111111112 0.16944444444444445 0.175 0.17777777777777778 0.17777777777777778,0.8351851851851853 0.8342592592592593 0.8324074074074074 0.8314814814814815 0.8296296296296296 0.8296296296296296 0.8296296296296296 0.8296296296296296 0.8296296296296296 0.8296296296296296 0.8277777777777777 0.8240740740740741 0.8185185185185185 0.8083333333333333 0.799074074074074 0.749074074074074 0.6962962962962963 0.6611111111111111 0.6203703703703703 0.5814814814814815 0.5074074074074074 0.4777777777777778 0.4296296296296296 0.4009259259259259 0.3685185185185185 0.3157407407407408 0.28796296296296303 0.2611111111111111 0.2342592592592593 0.2148148148148148 0.19259259259259254 0.18796296296296305 0.18518518518518529 0.18333333333333326 0.18240740740740746 0.17500000000000004 0.1694444444444444 0.16666666666666666 0.16481481481481486 0.16296296296296298 0.15833333333333333 0.15648148148148144 0.15555555555555556 0.15555555555555556 0.15555555555555556 0.15462962962962967 0.1527777777777778 0.14814814814814814 0.14629629629629626 0.14537037037037034 0.1435185185185185 0.1425925925925926 0.1425925925925926 0.1425925925925926 0.1425925925925926 0.1425925925925926 0.1425925925925926 0.1425925925925926 0.1425925925925926 0.1425925925925926 0.1425925925925926 0.1425925925925926 0.14074074074074072 0.13703703703703707 0.1342592592592593 0.13240740740740742 0.13148148148148153 0.13055555555555556,233.40000000000873 253.40000000000873 273.40000000000873 293.40000000000873 313.40000000000873 333.40000000000873 353.4000000000088 373.4000000000088 393.4000000000088 413.4000000000088 433.4000000000088 453.4000000000088 473.4000000000088 493.4000000000088 513.4000000000087 533.4000000000087 553.4000000000087 573.4000000000087 593.4000000000087 613.4000000000087 633.4000000000087 653.4000000000087 673.4000000000087 693.4000000000087 713.4000000000087 733.4000000000087 753.4000000000087 773.4000000000087 793.4000000000087 813.4000000000087 833.4000000000087 853.4000000000087 873.4000000000087 893.4000000000087 913.4000000000087 933.4000000000087 953.4000000000087 973.4000000000087 993.4000000000087 1013.4000000000087 1033.4000000000087 1053.4000000000087 1073.4000000000087 1093.4000000000087 1113.4000000000087 1133.4000000000087 1153.4000000000087 1173.4000000000087 1193.4000000000087 1213.4000000000087 1233.4000000000087 1253.4000000000087 1273.4000000000087 1293.4000000000087 1313.4000000000087 1333.4000000000087 1353.4000000000087 1373.4000000000087 1393.400000000009 1413.400000000009 1433.400000000009 1453.400000000009 1473.400000000009 1493.400000000009 1513.400000000009 1533.400000000009 1553.400000000009 1573.400000000009
cb_04,5.0,enc_trial,stim,response,STEM students,1201.1000000000058,enc_trial,1.0,5.0,s_sh_16_1,student_shared,fold-a,stapler,4.0,competing,far,paired,s_sh_16_1.jpg,,student-b1,STEM students,Fine Arts students,sub-37,1.0,1.0,1.0,1.0,0.5041666666666667 0.5041666666666667 0.5048611111111111 0.5048611111111111 0.5055555555555555 0.5055555555555555 0.5055555555555555 0.5055555555555555 0.5055555555555555 0.5055555555555555 0.5055555555555555 0.5055555555555555 0.5055555555555555 0.5055555555555555 0.5055555555555555 0.5055555555555555 0.5055555555555555 0.5055555555555555 0.5055555555555555 0.5055555555555555 0.5055555555555555 0.5041666666666667 0.4993055555555556 0.4958333333333334 0.4916666666666666 0.4777777777777778 0.4729166666666666 0.4652777777777778 0.4618055555555556 0.4576388888888889 0.4541666666666666 0.4541666666666666 0.4541666666666666 0.4590277777777778 0.4701388888888889 0.5208333333333334 0.5368055555555555 0.55 0.55 0.5347222222222222 0.4770833333333334 0.4409722222222222 0.3881944444444445 0.35694444444444445 0.3263888888888889 0.27291666666666664 0.2534722222222222 0.2375 0.21319444444444444 0.20208333333333334 0.18125 0.17152777777777778 0.16041666666666668 0.1486111111111111 0.13680555555555554 0.12638888888888888 0.12222222222222222 0.12013888888888888 0.11944444444444445,0.8351851851851853 0.8351851851851853 0.8351851851851853 0.8351851851851853 0.8351851851851853 0.8351851851851853 0.8351851851851853 0.8351851851851853 0.8351851851851853 0.8351851851851853 0.8342592592592593 0.8342592592592593 0.8333333333333334 0.8333333333333334 0.8333333333333334 0.8333333333333334 0.8333333333333334 0.8333333333333334 0.8333333333333334 0.8333333333333334 0.8324074074074074 0.8277777777777777 0.8138888888888889 0.8046296296296296 0.7944444444444445 0.7611111111111111 0.7481481481481482 0.7296296296296296 0.7185185185185186 0.7037037037037037 0.674074074074074 0.6675925925925925 0.662037037037037 0.6546296296296297 0.6398148148148148 0.5861111111111111 0.5629629629629629 0.5231481481481481 0.4805555555555555 0.4287037037037037 0.3277777777777777 0.28148148148148144 0.2305555555555555 0.20925925925925928 0.19259259259259254 0.1694444444444444 0.16296296296296298 0.1592592592592592 0.14814814814814814 0.1425925925925926 0.13055555555555556 0.12592592592592589 0.12222222222222225 0.12129629629629635 0.12129629629629635 0.12129629629629635 0.12129629629629635 0.12222222222222225 0.12222222222222225,16.700000000011638 36.70000000001164 56.70000000001164 76.70000000001166 96.70000000001166 116.70000000001166 136.7000000000117 156.7000000000117 176.70000000001167 196.70000000001167 216.70000000001167 236.70000000001167 256.7000000000117 276.7000000000117 296.7000000000117 316.7000000000117 336.7000000000117 356.7000000000117 376.7000000000117 396.7000000000117 416.7000000000117 436.7000000000117 456.7000000000117 476.7000000000117 496.70000000001176 516.7000000000119 536.7000000000119 556.7000000000119 576.7000000000118 596.7000000000118 616.7000000000118 636.7000000000118 656.7000000000118 676.7000000000118 696.7000000000118 716.7000000000118 736.7000000000118 756.7000000000118 776.7000000000118 796.7000000000118 816.7000000000118 836.7000000000118 856.7000000000118 876.7000000000118 896.7000000000118 916.7000000000118 936.7000000000118 956.7000000000118 976.7000000000121 996.7000000000121 1016.7000000000121 1036.700000000012 1056.700000000012 1076.700000000012 1096.700000000012 1116.700000000012 1136.700000000012 1156.700000000012 1176.700000000012
cb_04,6.0,enc_trial,stim,response,STEM students,1367.6000000014901,enc_trial,1.0,6.0,s_sh_18_1,student_shared,fold-c-single,wall calendar,4.0,competing,,single,s_sh_18_1.jpg,,student-b1,STEM students,Fine Arts students,sub-37,1.0,,1.0,,0.5006944444444444 0.4979166666666667 0.4972222222222222 0.4965277777777778 0.4965277777777778 0.4958333333333334 0.4916666666666666 0.4868055555555556 0.4826388888888889 0.4770833333333334 0.4527777777777778 0.4319444444444445 0.4083333333333333 0.3861111111111111 0.3583333333333333 0.32083333333333336 0.30069444444444443 0.28541666666666665 0.2708333333333333 0.25277777777777777 0.24375 0.2270833333333333 0.21944444444444444 0.21597222222222226 0.21319444444444444 0.21041666666666667 0.19791666666666666 0.19375 0.19166666666666668 0.18819444444444444 0.17569444444444446 0.16527777777777775 0.15416666666666667 0.14652777777777778 0.1388888888888889 0.12708333333333333 0.12569444444444444,0.8287037037037037 0.8222222222222222 0.8203703703703704 0.8194444444444444 0.8185185185185185 0.8166666666666667 0.8083333333333333 0.7925925925925926 0.7759259259259259 0.7574074074074074 0.6925925925925926 0.6453703703703704 0.5898148148148148 0.5351851851851852 0.4685185185185186 0.3935185185185185 0.35462962962962963 0.3222222222222222 0.29074074074074074 0.2481481481481481 0.2305555555555555 0.2064814814814815 0.1953703703703704 0.18888888888888888 0.18148148148148147 0.17592592592592593 0.16574074074074074 0.16296296296296298 0.1611111111111111 0.15740740740740744 0.14907407407407405 0.1435185185185185 0.13796296296296295 0.13703703703703707 0.13611111111111107 0.1342592592592593 0.1342592592592593,599.8999999999943 619.8999999999943 639.8999999999943 659.8999999999943 679.8999999999943 699.8999999999942 719.8999999999942 739.8999999999942 759.8999999999942 779.8999999999942 799.8999999999942 819.8999999999942 839.8999999999942 859.8999999999942 879.8999999999942 899.8999999999942 919.8999999999944 939.8999999999944 959.8999999999944 979.8999999999944 999.8999999999944 1019.8999999999944 1039.8999999999942 1059.8999999999942 1079.8999999999942 1099.8999999999942 1119.8999999999942 1139.8999999999942 1159.8999999999942 1179.8999999999942 1199.8999999999942 1219.8999999999942 1239.8999999999942 1259.8999999999942 1279.8999999999942 1299.8999999999942 1319.8999999999942
cb_04,7.0,enc_trial,stim,response,STEM students,1771.2000000007392,enc_trial,1.0,7.0,s_sh_04_1,student_shared,fold-c-single,laptop stand,4.0,competing,,single,s_sh_04_1.jpg,,student-b1,STEM students,Fine Arts students,sub-37,1.0,,1.0,,0.5013888888888889 0.5006944444444444 0.5006944444444444 0.5 0.5 0.4993055555555556 0.4993055555555556 0.4993055555555556 0.4986111111111111 0.4979166666666667 0.4958333333333334 0.4944444444444445 0.49375 0.4930555555555556 0.4923611111111112 0.4923611111111112 0.4916666666666666 0.4909722222222222 0.4909722222222222 0.4902777777777778 0.4881944444444444 0.4881944444444444 0.4868055555555556 0.4861111111111111 0.4854166666666666 0.4826388888888889 0.4805555555555556 0.4777777777777778 0.475 0.4708333333333333 0.4680555555555556 0.4555555555555556 0.44583333333333336 0.43333333333333335 0.4180555555555556 0.3805555555555555 0.3611111111111111 0.3388888888888889 0.31666666666666665 0.29444444444444445 0.25833333333333336 0.24097222222222225 0.23125 0.22361111111111112 0.2180555555555556 0.21666666666666667 0.22083333333333333 0.2375 0.2701388888888889 0.32083333333333336 0.4381944444444445 0.5125 0.5895833333333333 0.6840277777777778 0.7333333333333333 0.7895833333333333 0.7986111111111112 0.8041666666666667 0.8090277777777778 0.8111111111111111 0.8034722222222223 0.7923611111111111 0.78125 0.7798611111111111 0.7923611111111111 0.8618055555555556 0.8888888888888888 0.9027777777777778 0.9048611111111112 0.8972222222222223 0.8319444444444445 0.725 0.6256944444444444 0.5229166666666667 0.4368055555555556 0.28680555555555554 0.2375 0.21666666666666667 0.21458333333333326 0.21458333333333326 0.21458333333333326 0.2125 0.20625 0.19375 0.17847222222222225 0.15,0.8314814814814815 0.8287037037037037 0.8268518518518518 0.825 0.8240740740740741 0.8231481481481482 0.8231481481481482 0.8231481481481482 0.8212962962962963 0.8185185185185185 0.8111111111111111 0.8083333333333333 0.8064814814814815 0.8046296296296296 0.8037037037037037 0.8027777777777778 0.8018518518518518 0.8009259259259259 0.8 0.7981481481481482 0.7944444444444445 0.7935185185185185 0.7916666666666666 0.7907407407407407 0.7888888888888889 0.7814814814814814 0.7759259259259259 0.7703703703703704 0.7638888888888888 0.749074074074074 0.7379629629629629 0.6962962962962963 0.6648148148148147 0.6314814814814815 0.5935185185185186 0.5064814814814815 0.4675925925925926 0.4259259259259259 0.3851851851851852 0.3407407407407408 0.2685185185185185 0.2407407407407407 0.2277777777777777 0.2148148148148148 0.2 0.17685185185185182 0.1703703703703704 0.1592592592592592 0.14537037037037034 0.1351851851851852 0.12962962962962965 0.12870370370370365 0.12870370370370365 0.13055555555555556 0.12962962962962965 0.11851851851851848 0.11296296296296293 0.1074074074074074 0.10185185185185186 0.10092592592592596 0.10370370370370374 0.10833333333333328 0.1074074074074074 0.10555555555555553 0.10555555555555553 0.13703703703703707 0.15462962962962967 0.16296296296296298 0.16481481481481486 0.16296296296296298 0.13611111111111107 0.10648148148148152 0.10370370370370374 0.10925925925925928 0.10925925925925928 0.11944444444444445 0.12129629629629635 0.11851851851851848 0.1166666666666667 0.1166666666666667 0.1166666666666667 0.1157407407407407 0.10925925925925928 0.10462962962962964 0.10370370370370374 0.10648148148148152,33.39999999999418 53.39999999999418 73.3999999999942 93.39999999999418 113.39999999999418 133.39999999999418 153.39999999999418 173.3999999999942 193.39999999999415 213.39999999999415 233.39999999999415 253.39999999999415 273.3999999999942 293.3999999999942 313.3999999999942 333.3999999999942 353.3999999999942 373.3999999999942 393.3999999999942 413.3999999999942 433.3999999999942 453.3999999999942 473.3999999999942 493.3999999999942 513.3999999999942 533.3999999999942 553.3999999999942 573.3999999999943 593.3999999999943 613.3999999999943 633.3999999999943 653.3999999999943 673.3999999999943 693.3999999999942 713.3999999999942 733.3999999999942 753.3999999999942 773.3999999999942 793.3999999999942 813.3999999999942 833.3999999999942 853.3999999999942 873.3999999999942 893.3999999999942 913.3999999999942 933.3999999999942 953.3999999999942 973.3999999999942 993.3999999999942 1013.3999999999942 1033.3999999999942 1053.3999999999942 1073.3999999999942 1093.3999999999942 1113.3999999999942 1133.3999999999942 1153.3999999999942 1173.3999999999942 1193.3999999999942 1213.3999999999942 1233.3999999999942 1253.3999999999942 1273.3999999999942 1293.3999999999942 1313.3999999999942 1333.3999999999942 1353.3999999999942 1373.3999999999942 1393.3999999999942 1413.3999999999942 1433.3999999999942 1453.3999999999942 1473.3999999999942 1493.3999999999942 1513.3999999999942 1533.3999999999942 1553.3999999999942 1573.3999999999942 1593.3999999999942 1613.3999999999942 1633.3999999999942 1653.3999999999942 1673.3999999999942 1693.3999999999942 1713.3999999999942 1733.3999999999942
cb_04,8.0,enc_trial,stim,response,Fine Arts students,1153.1999999999969,enc_trial,1.0,8.0,s_a_17_1,student_art,fold-b-single,microphone,4.0,unique,,single,s_a_17_1.jpg,art,student-b1,STEM students,Fine Arts students,sub-37,1.0,,1.0,,0.4972222222222222 0.4972222222222222 0.4972222222222222 0.4972222222222222 0.4972222222222222 0.4972222222222222 0.4972222222222222 0.4972222222222222 0.4972222222222222 0.4972222222222222 0.4972222222222222 0.4972222222222222 0.4972222222222222 0.4972222222222222 0.4972222222222222 0.4972222222222222 0.4972222222222222 0.4972222222222222 0.4965277777777778 0.4958333333333334 0.4909722222222222 0.4847222222222222 0.48125 0.4756944444444444 0.4715277777777778 0.4604166666666666 0.4555555555555556 0.4486111111111111 0.4375 0.4284722222222222 0.40902777777777777 0.4027777777777778 0.3972222222222222 0.3944444444444444 0.40625 0.4819444444444445 0.5388888888888889 0.5944444444444444 0.6590277777777778 0.7256944444444444 0.8354166666666667 0.8819444444444444 0.8965277777777778 0.9076388888888888 0.9131944444444444 0.9152777777777776 0.9152777777777776 0.9159722222222222 0.9166666666666666 0.9173611111111112 0.9152777777777776 0.9111111111111112 0.9048611111111112 0.8986111111111111 0.8881944444444444 0.8736111111111111 0.8715277777777778,0.8324074074074074 0.8305555555555555 0.8277777777777777 0.825925925925926 0.8240740740740741 0.8231481481481482 0.8222222222222222 0.8222222222222222 0.8222222222222222 0.8222222222222222 0.8222222222222222 0.8222222222222222 0.8222222222222222 0.8222222222222222 0.8212962962962963 0.8166666666666667 0.8157407407407408 0.8148148148148149 0.8138888888888889 0.8111111111111111 0.8018518518518518 0.7888888888888889 0.7796296296296297 0.7657407407407407 0.7537037037037038 0.725 0.7101851851851853 0.6953703703703704 0.6777777777777778 0.662962962962963 0.6018518518518519 0.5657407407407408 0.5324074074074074 0.5018518518518518 0.4453703703703704 0.3666666666666667 0.3462962962962963 0.33518518518518514 0.3203703703703704 0.29814814814814816 0.24722222222222226 0.21666666666666667 0.20370370370370366 0.18796296296296305 0.1694444444444444 0.14166666666666672 0.12870370370370365 0.12314814814814813 0.1166666666666667 0.11296296296296293 0.10925925925925928 0.10648148148148152 0.10370370370370374 0.09999999999999998 0.09907407407407408 0.10462962962962964 0.10462962962962964,0.0 20.0 40.0 60.0 80.0 100.0 120.0 140.0 160.0 180.0 200.0 220.0 240.0 260.0 280.0 300.0 320.0 340.0 360.0 380.0 400.0 420.0 440.0 460.0 480.0 500.0 520.0 540.0 560.0 580.0 600.0 620.0 640.0 660.0 680.0 700.0 720.0 740.0 760.0 780.0 800.0 820.0 840.0 860.0 880.0 900.0 920.0 940.0 960.0 980.0 1000.0 1020.0 1040.0 1060.0 1080.0 1100.0 1120.0
cb_04,9.0,enc_trial,stim,response,STEM students,1117.6999999999969,enc_trial,1.0,9.0,s_sh_07_1,student_shared,fold-a,ruler,4.0,competing,far,paired,s_sh_07_1.jpg,,student-b1,STEM students,Fine Arts students,sub-37,1.0,1.0,0.0,0.0,0.4993055555555556 0.4979166666666667 0.4965277777777778 0.4951388888888889 0.4944444444444445 0.4930555555555556 0.4930555555555556 0.4923611111111112 0.4923611111111112 0.4916666666666666 0.4916666666666666 0.4916666666666666 0.4916666666666666 0.4909722222222222 0.4909722222222222 0.4909722222222222 0.4909722222222222 0.4909722222222222 0.4916666666666666 0.4930555555555556 0.4972222222222222 0.4993055555555556 0.5006944444444444 0.5013888888888889 0.5027777777777778 0.5027777777777778 0.5027777777777778 0.4986111111111111 0.4888888888888889 0.4708333333333333 0.4479166666666667 0.3784722222222222 0.33125 0.2847222222222222 0.2381944444444445 0.14027777777777778 0.11805555555555555 0.10347222222222224 0.09861111111111112 0.09791666666666668 0.10069444444444443 0.10208333333333333 0.10277777777777776 0.10347222222222224 0.10416666666666667 0.10555555555555557 0.1076388888888889 0.10833333333333334 0.10902777777777778 0.10902777777777778 0.10902777777777778,0.8305555555555555 0.8268518518518518 0.8212962962962963 0.8185185185185185 0.8166666666666667 0.8148148148148149 0.812962962962963 0.812037037037037 0.812037037037037 0.8111111111111111 0.8101851851851851 0.8101851851851851 0.8101851851851851 0.8092592592592592 0.8092592592592592 0.8046296296296296 0.8027777777777778 0.7981481481481482 0.7916666666666666 0.7824074074074074 0.7620370370370371 0.7555555555555555 0.7481481481481482 0.7435185185185185 0.7407407407407407 0.737037037037037 0.7333333333333334 0.7166666666666667 0.6935185185185185 0.6574074074074074 0.6175925925925926 0.5148148148148148 0.4537037037037037 0.4027777777777778 0.3629629629629629 0.2796296296296297 0.25370370370370365 0.2314814814814815 0.21851851851851856 0.20740740740740726 0.19351851851851853 0.18425925925925926 0.17592592592592593 0.1611111111111111 0.14907407407407405 0.13240740740740742 0.12222222222222225 0.1157407407407407 0.11111111111111116 0.10925925925925928 0.10833333333333328,83.39999999999421 103.39999999999421 123.39999999999421 143.39999999999418 163.39999999999418 183.3999999999942 203.3999999999942 223.3999999999942 243.3999999999942 263.3999999999942 283.3999999999942 303.3999999999942 323.3999999999942 343.3999999999942 363.3999999999942 383.3999999999942 403.3999999999942 423.3999999999942 443.3999999999942 463.3999999999942 483.3999999999942 503.3999999999942 523.3999999999942 543.3999999999942 563.3999999999943 583.3999999999943 603.3999999999943 623.3999999999943 643.3999999999943 663.3999999999943 683.3999999999943 703.3999999999942 723.3999999999942 743.3999999999942 763.3999999999942 783.3999999999942 803.3999999999942 823.3999999999942 843.3999999999942 863.3999999999942 883.3999999999942 903.3999999999942 923.3999999999942 943.3999999999942 963.3999999999942 983.3999999999942 1003.3999999999942 1023.3999999999942 1043.3999999999942 1063.3999999999942 1083.3999999999942
cb_04,10.0,enc_trial,stim,response,STEM students,1257.3999999985099,enc_trial,1.0,10.0,s_s_14_1,student_stem,fold-e,funnel,4.0,unique,far,paired,s_s_14_1.jpg,stem,student-b1,STEM students,Fine Arts students,sub-37,1.0,1.0,1.0,1.0,0.5027777777777778 0.5020833333333333 0.5020833333333333 0.5020833333333333 0.5013888888888889 0.5013888888888889 0.5013888888888889 0.5013888888888889 0.5013888888888889 0.5013888888888889 0.5013888888888889 0.5013888888888889 0.5013888888888889 0.5013888888888889 0.5013888888888889 0.5006944444444444 0.4972222222222222 0.4923611111111112 0.4819444444444445 0.4680555555555556 0.4118055555555555 0.3854166666666667 0.3590277777777778 0.33402777777777776 0.30625 0.25069444444444444 0.2361111111111111 0.22361111111111112 0.21041666666666667 0.19722222222222224 0.17569444444444446 0.16875 0.16180555555555556 0.15625 0.15 0.1388888888888889 0.13402777777777775 0.1284722222222222 0.12569444444444444 0.12430555555555554 0.12291666666666665,0.8296296296296296 0.8231481481481482 0.8203703703703704 0.8157407407407408 0.8148148148148149 0.8138888888888889 0.8138888888888889 0.8138888888888889 0.8138888888888889 0.8138888888888889 0.8138888888888889 0.8138888888888889 0.8138888888888889 0.8138888888888889 0.8138888888888889 0.812962962962963 0.8046296296296296 0.7962962962962963 0.7768518518518519 0.7509259259259259 0.6333333333333333 0.5787037037037037 0.5259259259259259 0.4787037037037037 0.4268518518518518 0.3314814814814815 0.3037037037037037 0.2787037037037037 0.25370370370370365 0.2342592592592593 0.21111111111111114 0.20185185185185184 0.18611111111111112 0.17685185185185182 0.1685185185185185 0.15555555555555556 0.14907407407407405 0.14166666666666672 0.13981481481481484 0.13981481481481484 0.13981481481481484,233.3000000000029 253.3000000000029 273.3000000000029 293.30000000000285 313.30000000000285 333.30000000000285 353.3000000000029 373.3000000000029 393.3000000000029 413.3000000000029 433.3000000000029 453.3000000000029 473.3000000000029 493.3000000000029 513.3000000000029 533.3000000000029 553.3000000000029 573.3000000000029 593.3000000000029 613.3000000000029 633.3000000000029 653.3000000000029 673.3000000000029 693.3000000000029 713.3000000000029 733.3000000000029 753.3000000000029 773.3000000000029 793.3000000000029 813.3000000000029 833.3000000000029 853.3000000000029 873.3000000000029 893.3000000000029 913.3000000000028 933.3000000000028 953.3000000000028 973.3000000000028 993.3000000000028 1013.3000000000028 1033.3000000000031
cb_04,11.0,enc_trial,stim,response,Fine Arts students,891.3000000007451,enc_trial,1.0,11.0,s_a_03_1,student_art,fold-e,palette,4.0,unique,far,paired,s_a_03_1.jpg,art,student-b1,STEM students,Fine Arts students,sub-37,1.0,1.0,1.0,1.0,0.4993055555555556 0.4951388888888889 0.4909722222222222 0.4868055555555556 0.4833333333333333 0.4791666666666667 0.4770833333333334 0.4743055555555555 0.4708333333333333 0.4652777777777778 0.4576388888888889 0.4548611111111111 0.4527777777777778 0.45 0.4465277777777778 0.4430555555555555 0.4430555555555555 0.44722222222222224 0.4597222222222222 0.4847222222222222 0.5590277777777778 0.6347222222222222 0.6868055555555556 0.7333333333333333 0.7743055555555556 0.8305555555555556 0.8520833333333333 0.8583333333333333 0.8618055555555556 0.8638888888888889 0.8652777777777778 0.8659722222222223 0.8666666666666667 0.8666666666666667 0.8666666666666667 0.8666666666666667 0.8673611111111111 0.8673611111111111 0.8673611111111111 0.8680555555555556 0.8680555555555556 0.8680555555555556,0.8314814814814815 0.8268518518518518 0.8222222222222222 0.8175925925925926 0.812962962962963 0.8074074074074074 0.8046296296296296 0.8 0.7944444444444445 0.7842592592592592 0.7722222222222223 0.7666666666666666 0.7638888888888888 0.7592592592592593 0.7518518518518519 0.737037037037037 0.7287037037037036 0.7148148148148148 0.6972222222222222 0.6703703703703704 0.6027777777777779 0.5342592592592592 0.4888888888888889 0.4444444444444444 0.4018518518518519 0.3305555555555556 0.2925925925925926 0.2768518518518519 0.26481481481481484 0.25370370370370365 0.2425925925925925 0.2361111111111112 0.2277777777777777 0.21666666666666667 0.2064814814814815 0.1944444444444444 0.18703703703703692 0.18240740740740746 0.1805555555555556 0.17407407407407405 0.16666666666666666 0.16574074074074074,66.69999999999709 86.6999999999971 106.69999999999708 126.69999999999708 146.6999999999971 166.6999999999971 186.6999999999971 206.6999999999971 226.6999999999971 246.6999999999971 266.6999999999971 286.69999999999715 306.69999999999715 326.69999999999715 346.6999999999971 366.6999999999971 386.6999999999971 406.6999999999971 426.6999999999971 446.6999999999971 466.6999999999971 486.6999999999971 506.6999999999971 526.6999999999971 546.6999999999971 566.6999999999971 586.6999999999971 606.6999999999971 626.6999999999971 646.6999999999971 666.6999999999971 686.6999999999971 706.6999999999971 726.6999999999971 746.6999999999971 766.6999999999971 786.6999999999971 806.6999999999971 826.6999999999971 846.6999999999971 866.6999999999971 886.6999999999971
cb_04,12.0,enc_trial,stim,response,Fine Arts students,1021.099999998507,enc_trial,1.0,12.0,s_a_19_1,student_art,fold-b-single,ballet shoes,4.0,unique,,single,s_a_19_1.jpg,art,student-b1,STEM students,Fine Arts students,sub-37,1.0,,1.0,,0.4979166666666667 0.4972222222222222 0.4965277777777778 0.4958333333333334 0.4958333333333334 0.4958333333333334 0.4958333333333334 0.4958333333333334 0.4958333333333334 0.4958333333333334 0.4958333333333334 0.4958333333333334 0.4958333333333334 0.4958333333333334 0.4944444444444445 0.4888888888888889 0.4868055555555556 0.4854166666666666 0.4840277777777778 0.4833333333333333 0.4819444444444445 0.4868055555555556 0.5 0.5243055555555556 0.5527777777777778 0.5854166666666667 0.6694444444444444 0.7402777777777778 0.7798611111111111 0.8048611111111111 0.8354166666666667 0.8451388888888889 0.8513888888888889 0.85625 0.8583333333333333 0.8611111111111112 0.8611111111111112 0.8611111111111112 0.8618055555555556 0.8652777777777778 0.8722222222222222 0.8743055555555556,0.8324074074074074 0.8324074074074074 0.8305555555555555 0.8305555555555555 0.8305555555555555 0.8305555555555555 0.8305555555555555 0.8305555555555555 0.8305555555555555 0.8305555555555555 0.8305555555555555 0.8305555555555555 0.8305555555555555 0.8305555555555555 0.8277777777777777 0.8148148148148149 0.8083333333333333 0.8027777777777778 0.7972222222222223 0.7944444444444445 0.7833333333333333 0.7638888888888888 0.7324074074074074 0.6888888888888889 0.6481481481481481 0.6064814814814814 0.5083333333333333 0.4120370370370371 0.3490740740740741 0.3037037037037037 0.2444444444444445 0.2231481481481481 0.2064814814814815 0.1944444444444444 0.1898148148148148 0.18518518518518529 0.18518518518518529 0.18518518518518529 0.18425925925925926 0.1777777777777778 0.15000000000000002 0.14166666666666672,166.6999999999971 186.6999999999971 206.6999999999971 226.6999999999971 246.6999999999971 266.6999999999971 286.69999999999715 306.69999999999715 326.69999999999715 346.6999999999971 366.6999999999971 386.6999999999971 406.6999999999971 426.6999999999971 446.6999999999971 466.6999999999971 486.6999999999971 506.6999999999971 526.6999999999971 546.6999999999971 566.6999999999971 586.6999999999971 606.6999999999971 626.6999999999971 646.6999999999971 666.6999999999971 686.6999999999971 706.6999999999971 726.6999999999971 746.6999999999971 766.6999999999971 786.6999999999971 806.6999999999971 826.6999999999971 846.6999999999971 866.6999999999971 886.6999999999971 906.6999999999972 926.6999999999972 946.6999999999972 966.6999999999972 986.6999999999972
cb_04,13.0,enc_trial,stim,response,STEM students,1205.299999998504,enc_trial,1.0,13.0,s_sh_11_1,student_shared,fold-b,pencil case,4.0,competing,close,paired,s_sh_11_1.jpg,,student-b1,STEM students,Fine Arts students,sub-37,1.0,1.0,0.0,0.0,0.4979166666666667 0.4979166666666667 0.4972222222222222 0.4972222222222222 0.4972222222222222 0.4972222222222222 0.4972222222222222 0.4965277777777778 0.4958333333333334 0.49375 0.4805555555555556 0.4673611111111111 0.4465277777777778 0.4222222222222222 0.3840277777777778 0.3284722222222222 0.30277777777777776 0.2763888888888889 0.25555555555555554 0.23194444444444445 0.19236111111111112 0.18263888888888888 0.17708333333333334 0.17222222222222222 0.16875 0.16597222222222222 0.16458333333333333 0.1625 0.1597222222222222 0.15694444444444444 0.15555555555555556 0.15416666666666667 0.15416666666666667 0.15416666666666667 0.15416666666666667 0.15416666666666667 0.15694444444444444 0.1673611111111111 0.1763888888888889 0.18472222222222226 0.17916666666666667 0.17291666666666666 0.16527777777777775 0.15208333333333332 0.14027777777777778 0.1284722222222222,0.8342592592592593 0.8314814814814815 0.8296296296296296 0.8277777777777777 0.825 0.8231481481481482 0.8222222222222222 0.8212962962962963 0.8185185185185185 0.812037037037037 0.7787037037037037 0.7453703703703703 0.7018518518518518 0.6546296296296297 0.587037037037037 0.4935185185185185 0.44166666666666665 0.3842592592592593 0.3342592592592593 0.2842592592592592 0.21944444444444444 0.1972222222222222 0.17962962962962958 0.16666666666666666 0.1592592592592592 0.14907407407407405 0.14537037037037034 0.1425925925925926 0.13981481481481484 0.1342592592592593 0.12870370370370365 0.125 0.12407407407407413 0.12407407407407413 0.12407407407407413 0.12407407407407413 0.125 0.12777777777777774 0.12962962962962965 0.1342592592592593 0.13981481481481484 0.14074074074074072 0.14074074074074072 0.14074074074074072 0.1425925925925926 0.14166666666666672,266.59999999999127 286.59999999999127 306.59999999999127 326.59999999999127 346.5999999999912 366.5999999999912 386.5999999999912 406.5999999999912 426.5999999999912 446.5999999999912 466.5999999999912 486.5999999999912 506.5999999999912 526.5999999999913 546.5999999999913 566.5999999999913 586.5999999999913 606.5999999999913 626.5999999999913 646.5999999999913 666.5999999999913 686.5999999999913 706.5999999999913 726.5999999999913 746.5999999999913 766.5999999999913 786.5999999999913 806.5999999999913 826.5999999999913 846.5999999999913 866.5999999999913 886.5999999999913 906.5999999999913 926.5999999999913 946.5999999999913 966.5999999999913 986.5999999999913 1006.5999999999913 1026.5999999999913 1046.5999999999913 1066.5999999999913 1086.5999999999913 1106.5999999999913 1126.5999999999913 1146.5999999999913 1166.5999999999913
cb_04,14.0,enc_trial,stim,response,STEM students,1301.4999999985155,enc_trial,1.0,14.0,s_sh_24_1,student_shared,fold-b,desk organizer,4.0,competing,close,paired,s_sh_24_1.jpg,,student-b1,STEM students,Fine Arts students,sub-37,1.0,1.0,1.0,1.0,0.5020833333333333 0.5013888888888889 0.5006944444444444 0.5 0.5 0.4993055555555556 0.4993055555555556 0.4986111111111111 0.4986111111111111 0.4979166666666667 0.4972222222222222 0.4972222222222222 0.4965277777777778 0.4965277777777778 0.4958333333333334 0.4951388888888889 0.4944444444444445 0.49375 0.4930555555555556 0.4930555555555556 0.4923611111111112 0.4916666666666666 0.4916666666666666 0.4916666666666666 0.4909722222222222 0.4902777777777778 0.4847222222222222 0.4756944444444444 0.4680555555555556 0.4569444444444444 0.44027777777777777 0.4055555555555556 0.3895833333333333 0.3756944444444445 0.3680555555555556 0.36527777777777776 0.3666666666666665 0.3645833333333333 0.3548611111111111 0.34097222222222223 0.2881944444444444 0.2638888888888889 0.2395833333333333 0.21944444444444444 0.2013888888888889 0.1868055555555556 0.1625 0.15625 0.15 0.1451388888888889 0.14027777777777778 0.1375 0.13541666666666666 0.13472222222222222 0.13402777777777775 0.1326388888888889 0.1284722222222222 0.12777777777777774 0.12708333333333333,0.8333333333333334 0.8305555555555555 0.825925925925926 0.8240740740740741 0.8231481481481482 0.8222222222222222 0.8203703703703704 0.8185185185185185 0.8175925925925926 0.8157407407407408 0.8111111111111111 0.8074074074074074 0.8064814814814815 0.8055555555555556 0.8046296296296296 0.8018518518518518 0.7962962962962963 0.7953703703703704 0.7935185185185185 0.7916666666666666 0.7907407407407407 0.787962962962963 0.7861111111111111 0.7851851851851852 0.7842592592592592 0.7805555555555556 0.7657407407407407 0.7453703703703703 0.7268518518518519 0.7018518518518518 0.6722222222222223 0.6009259259259259 0.5574074074074074 0.5064814814814815 0.4611111111111112 0.4194444444444444 0.4046296296296297 0.3972222222222223 0.3805555555555555 0.3574074074074074 0.2888888888888889 0.2685185185185185 0.25462962962962965 0.2444444444444445 0.2333333333333333 0.21944444444444444 0.20185185185185184 0.20092592592592595 0.1962962962962963 0.1907407407407408 0.18240740740740746 0.1787037037037037 0.17407407407407405 0.17222222222222228 0.16666666666666666 0.1611111111111111 0.15462962962962967 0.15370370370370368 0.1527777777777778,133.4000000000087 153.40000000000867 173.4000000000087 193.4000000000087 213.4000000000087 233.4000000000087 253.4000000000087 273.40000000000873 293.40000000000873 313.40000000000873 333.40000000000873 353.4000000000088 373.4000000000088 393.4000000000088 413.4000000000088 433.4000000000088 453.4000000000088 473.4000000000088 493.4000000000088 513.4000000000087 533.4000000000087 553.4000000000087 573.4000000000087 593.4000000000087 613.4000000000087 633.4000000000087 653.4000000000087 673.4000000000087 693.4000000000087 713.4000000000087 733.4000000000087 753.4000000000087 773.4000000000087 793.4000000000087 813.4000000000087 833.4000000000087 853.4000000000087 873.4000000000087 893.4000000000087 913.4000000000087 933.4000000000087 953.4000000000087 973.4000000000087 993.4000000000087 1013.4000000000087 1033.4000000000087 1053.4000000000087 1073.4000000000087 1093.4000000000087 1113.4000000000087 1133.4000000000087 1153.4000000000087 1173.4000000000087 1193.4000000000087 1213.4000000000087 1233.4000000000087 1253.4000000000087 1273.4000000000087 1293.4000000000087
cb_04,15.0,enc_trial,stim,response,STEM students,1234.1000000014901,enc_trial,1.0,15.0,s_s_17_1,student_stem,fold-e,ring stand,4.0,unique,far,paired,s_s_17_1.jpg,stem,student-b1,STEM students,Fine Arts students,sub-37,1.0,1.0,1.0,1.0,0.4986111111111111 0.4965277777777778 0.49375 0.4861111111111111 0.4763888888888889 0.44722222222222224 0.4263888888888889 0.40347222222222223 0.3819444444444444 0.3458333333333333 0.30277777777777776 0.28541666666666665 0.275 0.26944444444444443 0.26319444444444445 0.2375 0.2263888888888889 0.21458333333333326 0.2048611111111111 0.19444444444444445 0.18611111111111112 0.1840277777777778 0.18333333333333326 0.18055555555555555 0.1763888888888889 0.15763888888888888 0.14583333333333334 0.13472222222222222 0.12430555555555554 0.12361111111111113 0.12361111111111113 0.12361111111111113 0.12361111111111113 0.12361111111111113 0.12361111111111113 0.12361111111111113 0.12361111111111113 0.12430555555555554 0.125,0.8296296296296296 0.825925925925926 0.8212962962962963 0.8083333333333333 0.7898148148148147 0.7259259259259259 0.6777777777777778 0.625 0.5740740740740741 0.4861111111111112 0.3925925925925926 0.3537037037037037 0.3203703703703704 0.2953703703703704 0.27407407407407397 0.2361111111111112 0.2203703703703704 0.20277777777777767 0.18888888888888888 0.17407407407407405 0.15833333333333333 0.15555555555555556 0.15370370370370368 0.15000000000000002 0.1425925925925926 0.12685185185185188 0.12314814814814813 0.12129629629629635 0.11944444444444445 0.11851851851851848 0.11851851851851848 0.11851851851851848 0.11851851851851848 0.11851851851851848 0.11851851851851848 0.12129629629629635 0.12407407407407413 0.12870370370370365 0.13240740740740742,433.3999999999942 453.3999999999942 473.3999999999942 493.3999999999942 513.3999999999942 533.3999999999942 553.3999999999942 573.3999999999943 593.3999999999943 613.3999999999943 633.3999999999943 653.3999999999943 673.3999999999943 693.3999999999942 713.3999999999942 733.3999999999942 753.3999999999942 773.3999999999942 793.3999999999942 813.3999999999942 833.3999999999942 853.3999999999942 873.3999999999942 893.3999999999942 913.3999999999942 933.3999999999942 953.3999999999942 973.3999999999942 993.3999999999942 1013.3999999999942 1033.3999999999942 1053.3999999999942 1073.3999999999942 1093.3999999999942 1113.3999999999942 1133.3999999999942 1153.3999999999942 1173.3999999999942 1193.3999999999942
cb_04,16.0,enc_trial,stim,response,Fine Arts students,1559.6999999999966,enc_trial,1.0,16.0,s_sh_23_2,student_shared,fold-a,ballpoint pen,4.0,competing,far,paired,s_sh_23_2.jpg,,student-b1,STEM students,Fine Arts students,sub-37,1.0,1.0,0.0,0.0,0.5 0.5 0.4993055555555556 0.4986111111111111 0.4979166666666667 0.4972222222222222 0.4972222222222222 0.4972222222222222 0.4979166666666667 0.4993055555555556 0.5034722222222222 0.5041666666666667 0.5048611111111111 0.5048611111111111 0.5048611111111111 0.5048611111111111 0.5013888888888889 0.4965277777777778 0.4854166666666666 0.4618055555555556 0.4208333333333333 0.3979166666666665 0.3770833333333333 0.3555555555555556 0.3347222222222222 0.29444444444444445 0.27847222222222223 0.2659722222222222 0.25625 0.2458333333333333 0.22916666666666666 0.21944444444444444 0.21597222222222226 0.2125 0.2076388888888889 0.19375 0.1868055555555556 0.17916666666666667 0.1673611111111111 0.1597222222222222 0.14722222222222225 0.14444444444444446 0.14444444444444446 0.15416666666666667 0.1701388888888889 0.23472222222222225 0.2875 0.3576388888888889 0.4354166666666667 0.5208333333333334 0.6951388888888889 0.7548611111111111 0.8 0.8291666666666667 0.8423611111111111 0.8451388888888889 0.84375 0.8430555555555556 0.8423611111111111 0.8423611111111111 0.8472222222222222 0.8576388888888888 0.8694444444444445 0.8743055555555556 0.8791666666666667 0.8833333333333333 0.8861111111111111 0.8861111111111111,0.8333333333333334 0.8305555555555555 0.8268518518518518 0.8240740740740741 0.8212962962962963 0.8185185185185185 0.8175925925925926 0.8148148148148149 0.8101851851851851 0.8046296296296296 0.7972222222222223 0.7944444444444445 0.7925925925925926 0.7907407407407407 0.787962962962963 0.7759259259259259 0.7638888888888888 0.7481481481481482 0.7203703703703703 0.6601851851851852 0.5638888888888889 0.5138888888888888 0.4601851851851851 0.4101851851851852 0.3666666666666667 0.3027777777777778 0.2833333333333333 0.2675925925925926 0.25370370370370365 0.23703703703703705 0.2157407407407408 0.20370370370370366 0.1962962962962963 0.1898148148148148 0.18425925925925926 0.17314814814814816 0.16574074074074074 0.15648148148148144 0.1444444444444445 0.13888888888888884 0.1333333333333333 0.12962962962962965 0.12777777777777774 0.12407407407407413 0.12222222222222225 0.12129629629629635 0.12129629629629635 0.12222222222222225 0.1333333333333333 0.15000000000000002 0.16759259259259265 0.15462962962962967 0.14166666666666672 0.1342592592592593 0.13240740740740742 0.13240740740740742 0.13240740740740742 0.13148148148148153 0.13148148148148153 0.13148148148148153 0.13148148148148153 0.1342592592592593 0.13703703703703707 0.13888888888888884 0.13981481481481484 0.13981481481481484 0.13888888888888884 0.13796296296296295,216.8000000000029 236.8000000000029 256.8000000000029 276.8000000000029 296.80000000000285 316.80000000000285 336.80000000000285 356.8000000000029 376.8000000000029 396.8000000000029 416.8000000000029 436.8000000000029 456.8000000000029 476.8000000000029 496.8000000000029 516.8000000000029 536.8000000000029 556.8000000000029 576.8000000000029 596.8000000000029 616.8000000000029 636.8000000000029 656.8000000000029 676.8000000000029 696.8000000000029 716.8000000000029 736.8000000000029 756.8000000000029 776.8000000000029 796.8000000000029 816.8000000000029 836.8000000000029 856.8000000000029 876.8000000000029 896.8000000000029 916.8000000000028 936.8000000000028 956.8000000000028 976.8000000000028 996.8000000000028 1016.8000000000028 1036.8000000000031 1056.8000000000031 1076.8000000000031 1096.8000000000031 1116.8000000000031 1136.8000000000031 1156.8000000000031 1176.8000000000031 1196.8000000000031 1216.8000000000031 1236.8000000000031 1256.8000000000031 1276.8000000000031 1296.8000000000031 1316.8000000000031 1336.8000000000031 1356.8000000000031 1376.8000000000031 1396.8000000000031 1416.8000000000031 1436.8000000000031 1456.8000000000031 1476.8000000000031 1496.8000000000031 1516.8000000000031 1536.8000000000031 1556.8000000000031
cb_04,17.0,enc_trial,stim,response,Fine Arts students,1079.7000000000116,enc_trial,1.0,17.0,s_sh_11_2,student_shared,fold-b,pencil case,4.0,competing,close,paired,s_sh_11_2.jpg,,student-b1,STEM students,Fine Arts students,sub-37,1.0,1.0,0.0,0.0,0.5013888888888889 0.5006944444444444 0.4993055555555556 0.4986111111111111 0.4993055555555556 0.5 0.5111111111111111 0.5270833333333333 0.5631944444444444 0.5861111111111111 0.6340277777777777 0.6548611111111111 0.675 0.6958333333333333 0.7131944444444445 0.7340277777777777 0.7576388888888889 0.7673611111111112 0.7736111111111111 0.7798611111111111 0.7840277777777778 0.7854166666666667 0.7888888888888889 0.7944444444444444 0.8055555555555556 0.8173611111111111 0.8395833333333333 0.8597222222222223 0.8722222222222222 0.8826388888888889 0.8888888888888888,0.8351851851851853 0.8287037037037037 0.8222222222222222 0.812962962962963 0.8037037037037037 0.7953703703703704 0.7601851851851852 0.7240740740740741 0.6444444444444444 0.5953703703703703 0.4990740740740741 0.4592592592592593 0.42314814814814816 0.3833333333333333 0.3462962962962963 0.2962962962962963 0.2398148148148148 0.2148148148148148 0.19907407407407407 0.18333333333333326 0.17500000000000004 0.17407407407407405 0.17129629629629628 0.16759259259259265 0.16296296296296298 0.1620370370370371 0.1611111111111111 0.16296296296296298 0.16481481481481486 0.16574074074074074 0.16574074074074074,466.7000000000117 486.7000000000117 506.7000000000117 526.7000000000116 546.7000000000116 566.7000000000116 586.7000000000116 606.7000000000116 626.7000000000116 646.7000000000116 666.7000000000116 686.7000000000116 706.7000000000116 726.7000000000116 746.7000000000116 766.7000000000116 786.7000000000116 806.7000000000116 826.7000000000116 846.7000000000116 866.7000000000116 886.7000000000116 906.7000000000116 926.7000000000116 946.7000000000116 966.7000000000116 986.7000000000116 1006.7000000000116 1026.7000000000116 1046.7000000000116 1066.7000000000116
cb_04,18.0,enc_trial,stim,response,Fine Arts students,1433.2000000000116,enc_trial,1.0,18.0,s_a_09_1,student_art,fold-e,picture frame,4.0,unique,far,paired,s_a_09_1.jpg,art,student-b1,STEM students,Fine Arts students,sub-37,0.0,0.0,1.0,0.0,0.5027777777777778 0.5020833333333333 0.5020833333333333 0.5013888888888889 0.5006944444444444 0.4993055555555556 0.4986111111111111 0.4972222222222222 0.4958333333333334 0.4951388888888889 0.4930555555555556 0.4875 0.4826388888888889 0.4770833333333334 0.4722222222222222 0.4625 0.45625 0.45 0.4381944444444445 0.4263888888888889 0.39375 0.3729166666666667 0.3527777777777778 0.3333333333333333 0.3138888888888889 0.2861111111111111 0.28402777777777777 0.28541666666666665 0.29375 0.3118055555555556 0.41458333333333336 0.4708333333333333 0.5319444444444444 0.5923611111111111 0.65625 0.7152777777777778 0.8166666666666667 0.8604166666666667 0.8763888888888889 0.8826388888888889 0.8840277777777777 0.8840277777777777 0.8840277777777777 0.8840277777777777 0.8847222222222222 0.8847222222222222 0.8854166666666666 0.8854166666666666 0.8854166666666666 0.8854166666666666 0.8854166666666666 0.8854166666666666 0.8854166666666666 0.8854166666666666 0.8854166666666666 0.8854166666666666 0.8854166666666666 0.8854166666666666 0.8854166666666666 0.8854166666666666 0.8833333333333333 0.8819444444444444 0.88125,0.8324074074074074 0.8324074074074074 0.8314814814814815 0.8314814814814815 0.8305555555555555 0.8287037037037037 0.8277777777777777 0.8268518518518518 0.8240740740740741 0.8212962962962963 0.8185185185185185 0.8101851851851851 0.799074074074074 0.7833333333333333 0.7611111111111111 0.7092592592592593 0.6833333333333333 0.65 0.5953703703703703 0.5574074074074074 0.475 0.4268518518518518 0.3824074074074074 0.337037037037037 0.30092592592592593 0.24629629629629635 0.2342592592592593 0.2296296296296297 0.2240740740740741 0.2157407407407408 0.2046296296296296 0.20277777777777767 0.2 0.19351851851851853 0.18240740740740746 0.1703703703703704 0.1518518518518519 0.14907407407407405 0.14907407407407405 0.14907407407407405 0.15000000000000002 0.15000000000000002 0.15000000000000002 0.15000000000000002 0.1509259259259259 0.1509259259259259 0.1509259259259259 0.1509259259259259 0.1509259259259259 0.1509259259259259 0.1509259259259259 0.1509259259259259 0.1509259259259259 0.1509259259259259 0.1509259259259259 0.1509259259259259 0.1509259259259259 0.1509259259259259 0.1509259259259259 0.1509259259259259 0.1509259259259259 0.15000000000000002 0.14907407407407405,183.29999999998842 203.29999999998842 223.29999999998842 243.29999999998842 263.2999999999884 283.29999999998836 303.29999999998836 323.29999999998836 343.29999999998836 363.2999999999884 383.2999999999884 403.2999999999884 423.2999999999884 443.2999999999884 463.2999999999884 483.2999999999884 503.2999999999884 523.2999999999884 543.2999999999884 563.2999999999884 583.2999999999884 603.2999999999884 623.2999999999884 643.2999999999884 663.2999999999884 683.2999999999884 703.2999999999884 723.2999999999884 743.2999999999884 763.2999999999884 783.2999999999884 803.2999999999884 823.2999999999884 843.2999999999884 863.2999999999884 883.2999999999884 903.2999999999884 923.2999999999884 943.2999999999884 963.2999999999884 983.2999999999884 1003.2999999999884 1023.2999999999884 1043.2999999999884 1063.2999999999884 1083.2999999999884 1103.2999999999884 1123.2999999999884 1143.2999999999886 1163.2999999999886 1183.2999999999886 1203.2999999999886 1223.2999999999886 1243.2999999999886 1263.2999999999886 1283.2999999999886 1303.2999999999886 1323.2999999999886 1343.2999999999886 1363.2999999999886 1383.2999999999884 1403.2999999999884 1423.2999999999884
cb_04,19.0,enc_trial,stim,response,Fine Arts students,1085.2999999999884,enc_trial,1.0,19.0,s_a_20_1,student_art,fold-a,pin cushion,4.0,unique,close,paired,s_a_20_1.jpg,art,student-b1,STEM students,Fine Arts students,sub-37,1.0,1.0,1.0,1.0,0.4965277777777778 0.49375 0.4916666666666666 0.4881944444444444 0.4868055555555556 0.4861111111111111 0.4888888888888889 0.4916666666666666 0.4972222222222222 0.50625 0.5368055555555555 0.5465277777777777 0.5541666666666667 0.5611111111111111 0.5694444444444444 0.58125 0.6125 0.6319444444444444 0.6618055555555555 0.6958333333333333 0.7256944444444444 0.7784722222222222 0.8118055555555556 0.83125 0.8444444444444444 0.8520833333333333 0.8618055555555556 0.8638888888888889 0.8673611111111111 0.86875 0.86875 0.86875 0.86875 0.86875 0.86875,0.8333333333333334 0.8268518518518518 0.8166666666666667 0.7981481481481482 0.7861111111111111 0.7759259259259259 0.7537037037037038 0.7435185185185185 0.7287037037037036 0.7074074074074075 0.6407407407407407 0.6231481481481482 0.6092592592592593 0.5953703703703703 0.5768518518518518 0.5518518518518518 0.4972222222222222 0.4712962962962963 0.4351851851851852 0.3972222222222223 0.3657407407407407 0.3175925925925925 0.2851851851851852 0.2629629629629629 0.24629629629629635 0.2351851851851852 0.2157407407407408 0.20925925925925928 0.1907407407407408 0.17407407407407405 0.16481481481481486 0.15740740740740744 0.15740740740740744 0.15648148148148144 0.15555555555555556,400.0 420.0 440.0 460.0 480.0 500.0 520.0 540.0 560.0 580.0 600.0 620.0 640.0 660.0 680.0 700.0 720.0 740.0 760.0 780.0 800.0 820.0 840.0 860.0 880.0 900.0 920.0 940.0 960.0 980.0 1000.0 1020.0 1040.0 1060.0 1080.0
cb_04,20.0,enc_trial,stim,response,STEM students,1032.0000000014843,enc_trial,1.0,20.0,s_sh_19_1,student_shared,fold-a,portable plastic drawer,4.0,competing,far,paired,s_sh_19_1.jpg,,student-b1,STEM students,Fine Arts students,sub-37,1.0,1.0,1.0,1.0,0.4965277777777778 0.4951388888888889 0.4930555555555556 0.4902777777777778 0.4881944444444444 0.48125 0.4791666666666667 0.4770833333333334 0.4743055555555555 0.4701388888888889 0.4583333333333333 0.45 0.44027777777777777 0.4222222222222222 0.40347222222222223 0.35347222222222224 0.3263888888888889 0.29444444444444445 0.2534722222222222 0.2326388888888889 0.2013888888888889 0.19375 0.18888888888888888 0.18472222222222226 0.18194444444444444 0.18055555555555555 0.17847222222222225 0.17708333333333334 0.1763888888888889 0.175 0.16805555555555554 0.16458333333333333 0.16111111111111112 0.15763888888888888 0.15347222222222226 0.14791666666666667 0.14652777777777778 0.14444444444444446 0.14375 0.14305555555555555,0.8342592592592593 0.8296296296296296 0.8240740740740741 0.8166666666666667 0.8111111111111111 0.7935185185185185 0.7861111111111111 0.7787037037037037 0.7675925925925926 0.7527777777777778 0.6962962962962963 0.6611111111111111 0.6333333333333333 0.5907407407407408 0.5574074074074074 0.4703703703703703 0.4296296296296296 0.3916666666666667 0.3481481481481481 0.325 0.2805555555555556 0.2666666666666667 0.25370370370370365 0.2398148148148148 0.2277777777777777 0.2046296296296296 0.1898148148148148 0.18611111111111112 0.18148148148148147 0.17592592592592593 0.1620370370370371 0.15833333333333333 0.15462962962962967 0.15370370370370368 0.14907407407407405 0.1444444444444445 0.1435185185185185 0.13888888888888884 0.13611111111111107 0.1342592592592593,250.0 270.0 290.0 310.0 330.0 350.0 370.0 390.0 410.0 430.0 450.0 470.0 490.0 510.0 530.0 550.0 570.0 590.0 610.0 630.0 650.0 670.0 690.0 710.0 730.0 750.0 770.0 790.0 810.0 830.0 850.0 870.0 890.0 910.0 930.0 950.0 970.0 990.0 1010.0 1030.0
cb_04,21.0,enc_trial,stim,response,Fine Arts students,1371.5999999985215,enc_trial,1.0,21.0,s_sh_24_2,student_shared,fold-b,desk organizer,4.0,competing,close,paired,s_sh_24_2.jpg,,student-b1,STEM students,Fine Arts students,sub-37,1.0,1.0,1.0,1.0,0.5041666666666667 0.5034722222222222 0.5034722222222222 0.5027777777777778 0.5027777777777778 0.5006944444444444 0.4986111111111111 0.4958333333333334 0.4930555555555556 0.4881944444444444 0.4708333333333333 0.4631944444444445 0.4555555555555556 0.44722222222222224 0.4388888888888889 0.40625 0.3923611111111111 0.3763888888888889 0.3618055555555556 0.3513888888888889 0.3416666666666667 0.34097222222222223 0.3423611111111111 0.34444444444444444 0.3486111111111111 0.3618055555555556 0.3715277777777778 0.3784722222222222 0.3798611111111111 0.3743055555555556 0.3576388888888889 0.3472222222222222 0.34444444444444444 0.3513888888888889 0.3729166666666667 0.4645833333333334 0.50625 0.5625 0.6229166666666667 0.6875 0.8131944444444444 0.8472222222222222 0.8659722222222223 0.8777777777777778 0.88125 0.8819444444444444 0.8819444444444444 0.8826388888888889 0.8854166666666666 0.8888888888888888 0.8986111111111111 0.9 0.9006944444444445 0.9006944444444445 0.9006944444444445 0.8965277777777778 0.8965277777777778,0.8305555555555555 0.8296296296296296 0.8287037037037037 0.8277777777777777 0.8268518518518518 0.8185185185185185 0.812962962962963 0.8074074074074074 0.8009259259259259 0.7888888888888889 0.7379629629629629 0.7166666666666667 0.6944444444444444 0.6685185185185185 0.6444444444444444 0.5703703703703704 0.5388888888888889 0.4981481481481481 0.4592592592592593 0.4203703703703704 0.35462962962962963 0.3388888888888889 0.3296296296296296 0.3148148148148148 0.29166666666666663 0.2509259259259259 0.2435185185185185 0.2407407407407407 0.2398148148148148 0.2388888888888889 0.2240740740740741 0.2064814814814815 0.19907407407407407 0.1953703703703704 0.19351851851851853 0.1944444444444444 0.1962962962962963 0.1972222222222222 0.1972222222222222 0.1972222222222222 0.1907407407407408 0.18518518518518529 0.18148148148148147 0.1787037037037037 0.1777777777777778 0.17685185185185182 0.17685185185185182 0.17685185185185182 0.17685185185185182 0.17685185185185182 0.17685185185185182 0.17685185185185182 0.17685185185185182 0.17685185185185182 0.17222222222222228 0.1527777777777778 0.15000000000000002,250.0 270.0 290.0 310.0 330.0 350.0 370.0 390.0 410.0 430.0 450.0 470.0 490.0 510.0 530.0 550.0 570.0 590.0 610.0 630.0 650.0 670.0 690.0 710.0 730.0 750.0 770.0 790.0 810.0 830.0 850.0 870.0 890.0 910.0 930.0 950.0 970.0 990.0 1010.0 1030.0 1050.0 1070.0 1090.0 1110.0 1130.0 1150.0 1170.0 1190.0 1210.0 1230.0 1250.0 1270.0 1290.0 1310.0 1330.0 1350.0 1370.0
cb_04,22.0,enc_trial,stim,response,Fine Arts students,1551.0,enc_trial,1.0,22.0,s_sh_16_2,student_shared,fold-a,stapler,4.0,competing,far,paired,s_sh_16_2.jpg,,student-b1,STEM students,Fine Arts students,sub-37,1.0,1.0,1.0,1.0,0.4951388888888889 0.4930555555555556 0.4916666666666666 0.4895833333333333 0.4888888888888889 0.4875 0.4868055555555556 0.4861111111111111 0.4854166666666666 0.4847222222222222 0.4833333333333333 0.4784722222222222 0.4756944444444444 0.4729166666666666 0.4701388888888889 0.46875 0.4652777777777778 0.4645833333333334 0.4659722222222222 0.4694444444444445 0.4729166666666666 0.4888888888888889 0.5090277777777777 0.5465277777777777 0.5680555555555555 0.5881944444444445 0.6194444444444445 0.63125 0.6361111111111111 0.6333333333333333 0.5791666666666667 0.54375 0.5048611111111111 0.4555555555555556 0.4013888888888889 0.27291666666666664 0.23472222222222225 0.1986111111111111 0.175 0.16319444444444445 0.15694444444444444 0.15069444444444444 0.14722222222222225 0.14444444444444446 0.14375 0.14375 0.15694444444444444 0.17152777777777778 0.20972222222222225 0.25625 0.3215277777777778 0.4777777777777778 0.5555555555555556 0.6236111111111111 0.6777777777777778 0.7569444444444444 0.7701388888888889 0.775 0.7777777777777778 0.7833333333333333 0.8013888888888889 0.8069444444444445 0.8111111111111111 0.8145833333333333 0.8236111111111111 0.8333333333333334 0.8520833333333333 0.8604166666666667,0.8361111111111111 0.8342592592592593 0.8324074074074074 0.8314814814814815 0.8305555555555555 0.8296296296296296 0.8287037037037037 0.8287037037037037 0.8277777777777777 0.8268518518518518 0.825925925925926 0.8148148148148149 0.8037037037037037 0.7935185185185185 0.7842592592592592 0.7777777777777778 0.7666666666666666 0.7546296296296297 0.7064814814814815 0.6601851851851852 0.6194444444444445 0.5601851851851851 0.5342592592592592 0.4953703703703704 0.47592592592592603 0.4583333333333334 0.4314814814814815 0.4194444444444444 0.4111111111111111 0.4037037037037037 0.3703703703703704 0.3407407407407408 0.3027777777777778 0.2592592592592593 0.2240740740740741 0.21111111111111114 0.21111111111111114 0.21111111111111114 0.21203703703703705 0.21203703703703705 0.2083333333333333 0.19907407407407407 0.19351851851851853 0.18796296296296305 0.18148148148148147 0.1777777777777778 0.16666666666666666 0.1611111111111111 0.1509259259259259 0.14166666666666672 0.13240740740740742 0.12314814814814813 0.12037037037037035 0.11851851851851848 0.11851851851851848 0.11944444444444445 0.12037037037037035 0.12222222222222225 0.12314814814814813 0.125 0.1351851851851852 0.13796296296296295 0.13888888888888884 0.13888888888888884 0.13888888888888884 0.13888888888888884 0.13888888888888884 0.13796296296296295,199.8999999999941 219.8999999999941 239.8999999999941 259.89999999999407 279.89999999999407 299.8999999999941 319.8999999999941 339.8999999999941 359.8999999999941 379.8999999999941 399.8999999999941 419.8999999999941 439.8999999999941 459.8999999999941 479.8999999999941 499.8999999999941 519.8999999999942 539.8999999999942 559.8999999999942 579.8999999999943 599.8999999999943 619.8999999999943 639.8999999999943 659.8999999999943 679.8999999999943 699.8999999999942 719.8999999999942 739.8999999999942 759.8999999999942 779.8999999999942 799.8999999999942 819.8999999999942 839.8999999999942 859.8999999999942 879.8999999999942 899.8999999999942 919.8999999999942 939.8999999999942 959.8999999999942 979.8999999999942 999.8999999999942 1019.8999999999942 1039.8999999999942 1059.8999999999942 1079.8999999999942 1099.8999999999942 1119.8999999999942 1139.8999999999942 1159.8999999999942 1179.8999999999942 1199.8999999999942 1219.8999999999942 1239.8999999999942 1259.8999999999942 1279.8999999999942 1299.8999999999942 1319.8999999999942 1339.8999999999942 1359.8999999999942 1379.8999999999942 1399.8999999999942 1419.8999999999942 1439.8999999999942 1459.8999999999942 1479.8999999999942 1499.8999999999942 1519.8999999999942 1539.8999999999942
cb_04,23.0,enc_trial,stim,response,Fine Arts students,1130.6999999992552,enc_trial,1.0,23.0,s_a_20_2,student_art,fold-a,pin cushion,4.0,unique,close,paired,s_a_20_2.jpg,art,student-b1,STEM students,Fine Arts students,sub-37,1.0,1.0,1.0,1.0,0.5048611111111111 0.5201388888888889 0.5451388888888888 0.5743055555555555 0.6034722222222222 0.6541666666666667 0.7166666666666667 0.74375 0.7631944444444444 0.7798611111111111 0.7895833333333333 0.7930555555555555 0.7902777777777777 0.7881944444444444 0.7854166666666667 0.7805555555555556 0.7611111111111111 0.7458333333333333 0.7451388888888889 0.7548611111111111 0.7708333333333334 0.8020833333333334 0.8229166666666666 0.8423611111111111 0.8673611111111111 0.8729166666666667 0.8736111111111111 0.8729166666666667 0.8722222222222222 0.8715277777777778,0.825925925925926 0.8064814814814815 0.7768518518518519 0.7388888888888889 0.7 0.6129629629629629 0.4703703703703703 0.40648148148148144 0.3638888888888889 0.3314814814814815 0.3157407407407408 0.3111111111111111 0.3111111111111111 0.3111111111111111 0.3111111111111111 0.31018518518518523 0.2962962962962963 0.2666666666666667 0.2444444444444445 0.2277777777777777 0.21759259259259256 0.2064814814814815 0.1972222222222222 0.18518518518518529 0.16759259259259265 0.1620370370370371 0.1592592592592592 0.15555555555555556 0.1509259259259259 0.14814814814814814,483.2000000000117 503.2000000000117 523.2000000000116 543.2000000000116 563.2000000000116 583.2000000000116 603.2000000000116 623.2000000000116 643.2000000000116 663.2000000000116 683.2000000000116 703.2000000000116 723.2000000000116 743.2000000000116 763.2000000000116 783.2000000000116 803.2000000000116 823.2000000000116 843.2000000000116 863.2000000000116 883.2000000000116 903.2000000000116 923.2000000000116 943.2000000000116 963.2000000000116 983.2000000000116 1003.2000000000116 1023.2000000000116 1043.2000000000116 1063.2000000000116
cb_04,24.0,enc_trial,stim,response,Fine Arts students,1145.1999999984982,enc_trial,1.0,24.0,s_sh_07_2,student_shared,fold-a,ruler,4.0,competing,far,paired,s_sh_07_2.jpg,,student-b1,STEM students,Fine Arts students,sub-37,1.0,1.0,0.0,0.0,0.5034722222222222 0.5013888888888889 0.4972222222222222 0.4881944444444444 0.4805555555555556 0.4590277777777778 0.4486111111111111 0.4361111111111111 0.4222222222222222 0.40625 0.3819444444444444 0.37916666666666665 0.37916666666666665 0.3826388888888889 0.39375 0.4125 0.4965277777777778 0.5333333333333333 0.5715277777777777 0.6131944444444445 0.6555555555555556 0.7340277777777777 0.7805555555555556 0.8125 0.8402777777777778 0.8708333333333333 0.9048611111111112 0.9118055555555556 0.9152777777777776 0.9194444444444444 0.9215277777777776 0.9222222222222224 0.9208333333333332 0.9159722222222222 0.9138888888888888 0.8972222222222223 0.8930555555555556 0.8923611111111112 0.8923611111111112 0.8916666666666667,0.8314814814814815 0.8277777777777777 0.8185185185185185 0.7981481481481482 0.7805555555555556 0.7166666666666667 0.6712962962962963 0.6138888888888889 0.5620370370370371 0.5222222222222221 0.4583333333333334 0.4351851851851852 0.4175925925925926 0.40648148148148144 0.3972222222222223 0.38703703703703707 0.3592592592592593 0.35092592592592603 0.337037037037037 0.3157407407407408 0.2972222222222223 0.2694444444444445 0.25555555555555554 0.24629629629629635 0.2398148148148148 0.2324074074074074 0.2240740740740741 0.21944444444444444 0.2129629629629629 0.20370370370370366 0.1953703703703704 0.18796296296296305 0.18333333333333326 0.1685185185185185 0.1620370370370371 0.12592592592592589 0.12129629629629635 0.12037037037037035 0.11944444444444445 0.11944444444444445,366.59999999997666 386.59999999997666 406.59999999997666 426.59999999997666 446.59999999997666 466.59999999997666 486.59999999997666 506.59999999997666 526.5999999999766 546.5999999999766 566.5999999999767 586.5999999999767 606.5999999999767 626.5999999999767 646.5999999999767 666.5999999999767 686.5999999999767 706.5999999999768 726.5999999999768 746.5999999999768 766.5999999999768 786.5999999999768 806.5999999999768 826.5999999999768 846.5999999999768 866.5999999999768 886.5999999999768 906.5999999999768 926.5999999999768 946.5999999999768 966.5999999999768 986.5999999999768 1006.5999999999768 1026.5999999999767 1046.5999999999767 1066.5999999999767 1086.5999999999767 1106.5999999999767 1126.5999999999767 1146.5999999999767
cb_04,25.0,enc_trial,stim,response,Fine Arts students,915.10000000149,enc_trial,1.0,25.0,s_a_03_2,student_art,fold-e,palette,4.0,unique,far,paired,s_a_03_2.jpg,art,student-b1,STEM students,Fine Arts students,sub-37,1.0,1.0,1.0,1.0,0.5027777777777778 0.5006944444444444 0.5 0.5006944444444444 0.5055555555555555 0.5340277777777778 0.5611111111111111 0.5881944444444445 0.6159722222222223 0.6423611111111112 0.7006944444444444 0.7270833333333333 0.7673611111111112 0.7868055555555555 0.8069444444444445 0.8375 0.8479166666666667 0.8493055555555555 0.8493055555555555 0.8493055555555555 0.8493055555555555 0.8493055555555555 0.8479166666666667 0.8479166666666667 0.8479166666666667 0.85,0.8305555555555555 0.825925925925926 0.8194444444444444 0.8064814814814815 0.7907407407407407 0.749074074074074 0.7148148148148148 0.6796296296296296 0.6398148148148148 0.5972222222222222 0.4805555555555555 0.4240740740740741 0.34259259259259256 0.31018518518518523 0.2842592592592592 0.24722222222222226 0.2333333333333333 0.2324074074074074 0.2314814814814815 0.2314814814814815 0.2240740740740741 0.2083333333333333 0.19351851851851853 0.18611111111111112 0.18333333333333326 0.17685185185185182,400.0 420.0 440.0 460.0 480.0 500.0 520.0 540.0 560.0 580.0 600.0 620.0 640.0 660.0 680.0 700.0 720.0 740.0 760.0 780.0 800.0 820.0 840.0 860.0 880.0 900.0
cb_04,26.0,enc_trial,stim,response,STEM students,1239.8999999985099,enc_trial,1.0,26.0,s_s_14_2,student_stem,fold-e,funnel,4.0,unique,far,paired,s_s_14_2.jpg,stem,student-b1,STEM students,Fine Arts students,sub-37,1.0,1.0,1.0,1.0,0.5013888888888889 0.5 0.4986111111111111 0.4951388888888889 0.4902777777777778 0.4798611111111111 0.4777777777777778 0.4770833333333334 0.4784722222222222 0.4833333333333333 0.5041666666666667 0.5305555555555556 0.58125 0.6131944444444445 0.6444444444444445 0.7090277777777778 0.73125 0.7423611111111111 0.7430555555555556 0.7277777777777777 0.6875 0.6486111111111111 0.5923611111111111 0.5215277777777778 0.4194444444444445 0.29444444444444445 0.2388888888888889 0.18819444444444444 0.15555555555555556 0.12986111111111112 0.09444444444444444 0.09097222222222222 0.09027777777777778 0.09097222222222222 0.09375 0.09652777777777778 0.09722222222222222 0.10138888888888888 0.10347222222222224 0.10694444444444444 0.1076388888888889,0.8324074074074074 0.8287037037037037 0.825 0.8203703703703704 0.8111111111111111 0.775 0.7574074074074074 0.7361111111111112 0.7185185185185186 0.6962962962962963 0.6453703703703704 0.5962962962962963 0.5120370370370371 0.4638888888888889 0.42314814814814816 0.3462962962962963 0.3185185185185185 0.30092592592592593 0.2898148148148149 0.2759259259259259 0.2481481481481481 0.2333333333333333 0.22129629629629632 0.21203703703703705 0.20185185185185184 0.2064814814814815 0.2138888888888889 0.21759259259259256 0.21759259259259256 0.2138888888888889 0.1962962962962963 0.1898148148148148 0.18240740740740746 0.17314814814814816 0.1620370370370371 0.14907407407407405 0.1435185185185185 0.1351851851851852 0.13148148148148153 0.12685185185185188 0.125,450.1000000000058 470.1000000000058 490.1000000000058 510.1000000000058 530.1000000000058 550.1000000000058 570.1000000000057 590.1000000000057 610.1000000000057 630.1000000000057 650.1000000000057 670.1000000000057 690.1000000000058 710.1000000000058 730.1000000000058 750.1000000000058 770.1000000000058 790.1000000000058 810.1000000000058 830.1000000000058 850.1000000000058 870.1000000000058 890.1000000000058 910.1000000000058 930.1000000000058 950.1000000000058 970.1000000000058 990.1000000000058 1010.1000000000058 1030.1000000000058 1050.1000000000058 1070.1000000000058 1090.1000000000058 1110.1000000000058 1130.1000000000058 1150.1000000000058 1170.1000000000058 1190.1000000000058 1210.1000000000058 1230.1000000000058 1250.1000000000058
cb_04,27.0,enc_trial,stim,response,STEM students,1028.8999999992666,enc_trial,1.0,27.0,s_s_05_1,student_stem,fold-a,lab goggles,4.0,unique,close,paired,s_s_05_1.jpg,stem,student-b1,STEM students,Fine Arts students,sub-37,1.0,1.0,1.0,1.0,0.4993055555555556 0.4972222222222222 0.4923611111111112 0.4895833333333333 0.4861111111111111 0.4763888888888889 0.4659722222222222 0.4541666666666666 0.4256944444444444 0.40347222222222223 0.35 0.3263888888888889 0.30486111111111114 0.2861111111111111 0.2611111111111111 0.2375 0.2263888888888889 0.21736111111111112 0.20625 0.1909722222222222 0.16597222222222222 0.15902777777777774 0.15416666666666667 0.15208333333333332 0.15138888888888888 0.15138888888888888 0.15069444444444444,0.825 0.8194444444444444 0.8055555555555556 0.7944444444444445 0.7833333333333333 0.75 0.7194444444444444 0.6796296296296296 0.587962962962963 0.525 0.39814814814814814 0.35185185185185186 0.3175925925925925 0.2935185185185185 0.27129629629629626 0.24629629629629635 0.2305555555555555 0.21944444444444444 0.2064814814814815 0.1907407407407408 0.1611111111111111 0.15370370370370368 0.14907407407407405 0.14814814814814814 0.14722222222222225 0.14629629629629626 0.1435185185185185,516.7000000000116 536.7000000000116 556.7000000000116 576.7000000000116 596.7000000000116 616.7000000000116 636.7000000000116 656.7000000000116 676.7000000000116 696.7000000000116 716.7000000000116 736.7000000000116 756.7000000000116 776.7000000000116 796.7000000000116 816.7000000000116 836.7000000000116 856.7000000000116 876.7000000000116 896.7000000000116 916.7000000000116 936.7000000000116 956.7000000000116 976.7000000000116 996.7000000000116 1016.7000000000116 1036.7000000000116
cb_04,28.0,enc_trial,stim,response,STEM students,1002.8999999999942,enc_trial,1.0,28.0,s_s_17_2,student_stem,fold-e,ring stand,4.0,unique,far,paired,s_s_17_2.jpg,stem,student-b1,STEM students,Fine Arts students,sub-37,1.0,1.0,1.0,1.0,0.5 0.4993055555555556 0.4993055555555556 0.4986111111111111 0.4986111111111111 0.4979166666666667 0.4958333333333334 0.4944444444444445 0.4930555555555556 0.4902777777777778 0.4875 0.4770833333333334 0.4708333333333333 0.4604166666666666 0.44722222222222224 0.41041666666666665 0.3909722222222222 0.3729166666666667 0.35208333333333336 0.3368055555555556 0.32083333333333336 0.3145833333333333 0.3145833333333333 0.3145833333333333 0.31666666666666665 0.3194444444444444 0.3201388888888889 0.3201388888888889 0.31666666666666665 0.3069444444444445 0.28194444444444444 0.2590277777777778 0.2451388888888889 0.22916666666666666 0.21180555555555555 0.1986111111111111 0.17430555555555555 0.1625 0.15625 0.1527777777777778 0.15 0.14652777777777778 0.14652777777777778 0.14652777777777778 0.14583333333333334,0.8333333333333334 0.8333333333333334 0.8324074074074074 0.8324074074074074 0.8314814814814815 0.8305555555555555 0.8277777777777777 0.825925925925926 0.8222222222222222 0.8185185185185185 0.8138888888888889 0.7962962962962963 0.787037037037037 0.7694444444444444 0.7416666666666667 0.6546296296296297 0.6018518518518519 0.55 0.4907407407407407 0.4435185185185185 0.3814814814814815 0.33611111111111114 0.325 0.3185185185185185 0.30092592592592593 0.2777777777777778 0.2731481481481481 0.27129629629629626 0.2666666666666667 0.2574074074074074 0.2231481481481481 0.2083333333333333 0.2046296296296296 0.20185185185185184 0.1972222222222222 0.19166666666666665 0.17962962962962958 0.17314814814814816 0.1685185185185185 0.16666666666666666 0.16481481481481486 0.1620370370370371 0.1620370370370371 0.1611111111111111 0.1611111111111111,133.19999999998254 153.19999999998254 173.19999999998254 193.19999999998254 213.19999999998254 233.19999999998254 253.19999999998254 273.19999999998254 293.1999999999825 313.1999999999825 333.1999999999825 353.19999999998254 373.19999999998254 393.19999999998254 413.19999999998254 433.19999999998254 453.19999999998254 473.19999999998254 493.19999999998254 513.1999999999825 533.1999999999825 553.1999999999825 573.1999999999825 593.1999999999825 613.1999999999825 633.1999999999825 653.1999999999825 673.1999999999825 693.1999999999824 713.1999999999824 733.1999999999824 753.1999999999824 773.1999999999824 793.1999999999824 813.1999999999824 833.1999999999824 853.1999999999824 873.1999999999824 893.1999999999824 913.1999999999823 933.1999999999823 953.1999999999823 973.1999999999823 993.1999999999823 1013.1999999999823
cb_04,29.0,enc_trial,stim,response,STEM students,1317.9000000007507,enc_trial,1.0,29.0,s_sh_10_1,student_shared,fold-b,scissors,4.0,competing,close,paired,s_sh_10_1.jpg,,student-b1,STEM students,Fine Arts students,sub-37,0.0,0.0,0.0,1.0,0.4986111111111111 0.4965277777777778 0.4944444444444445 0.4923611111111112 0.4895833333333333 0.4854166666666666 0.4770833333333334 0.4715277777777778 0.4631944444444445 0.45625 0.44722222222222224 0.4319444444444445 0.4236111111111111 0.4131944444444444 0.4013888888888889 0.3888888888888889 0.3631944444444444 0.3506944444444444 0.33611111111111114 0.3159722222222222 0.2958333333333333 0.25069444444444444 0.2270833333333333 0.20555555555555555 0.18125 0.16805555555555554 0.16180555555555556 0.16180555555555556 0.16180555555555556 0.16180555555555556 0.16458333333333333 0.17708333333333334 0.1840277777777778 0.18958333333333333 0.1930555555555556 0.1993055555555556 0.2305555555555556 0.26875 0.29930555555555555 0.3395833333333333 0.4493055555555556 0.5145833333333333 0.6180555555555556 0.6784722222222223 0.7333333333333333 0.7763888888888889 0.8270833333333333 0.8333333333333334 0.8340277777777778 0.8340277777777778 0.8340277777777778 0.8340277777777778 0.8277777777777777 0.8006944444444445 0.7236111111111111 0.6680555555555555 0.5527777777777778 0.4826388888888889 0.4048611111111111 0.3430555555555556 0.2916666666666667 0.1902777777777777 0.16458333333333333 0.15138888888888888 0.1451388888888889 0.14444444444444446,0.8361111111111111 0.8324074074074074 0.8287037037037037 0.8231481481481482 0.8175925925925926 0.8074074074074074 0.7861111111111111 0.7685185185185185 0.75 0.7342592592592593 0.7157407407407408 0.6712962962962963 0.6472222222222221 0.6222222222222222 0.5972222222222222 0.5731481481481482 0.512962962962963 0.4907407407407407 0.4712962962962963 0.4444444444444444 0.4157407407407408 0.3407407407407408 0.3046296296296296 0.2787037037037037 0.2518518518518519 0.2342592592592593 0.21851851851851856 0.2157407407407408 0.21203703703703705 0.20740740740740726 0.1972222222222222 0.18240740740740746 0.1777777777777778 0.17685185185185182 0.17592592592592593 0.17407407407407405 0.1611111111111111 0.1527777777777778 0.14907407407407405 0.1435185185185185 0.13055555555555556 0.12962962962962965 0.12962962962962965 0.13148148148148153 0.13240740740740742 0.13240740740740742 0.13240740740740742 0.13240740740740742 0.13240740740740742 0.13240740740740742 0.13240740740740742 0.13240740740740742 0.1333333333333333 0.14074074074074072 0.1592592592592592 0.15462962962962967 0.13611111111111107 0.14537037037037034 0.15833333333333333 0.15833333333333333 0.14814814814814814 0.14074074074074072 0.14074074074074072 0.14074074074074072 0.13796296296296295 0.13796296296296295,0.0 20.0 40.0 60.0 80.0 100.0 120.0 140.0 160.0 180.0 200.0 220.0 240.0 260.0 280.0 300.0 320.0 340.0 360.0 380.0 400.0 420.0 440.0 460.0 480.0 500.0 520.0 540.0 560.0 580.0 600.0 620.0 640.0 660.0 680.0 700.0 720.0 740.0 760.0 780.0 800.0 820.0 840.0 860.0 880.0 900.0 920.0 940.0 960.0 980.0 1000.0 1020.0 1040.0 1060.0 1080.0 1100.0 1120.0 1140.0 1160.0 1180.0 1200.0 1220.0 1240.0 1260.0 1280.0 1300.0
cb_04,30.0,enc_trial,stim,response,Fine Arts students,1383.2999999999884,enc_trial,1.0,30.0,s_a_10_1,student_art,fold-a,tripod,4.0,unique,close,paired,s_a_10_1.jpg,art,student-b1,STEM students,Fine Arts students,sub-37,1.0,1.0,0.0,1.0,0.5027777777777778 0.5006944444444444 0.4979166666666667 0.4951388888888889 0.4916666666666666 0.4888888888888889 0.4847222222222222 0.4819444444444445 0.4777777777777778 0.4715277777777778 0.4520833333333333 0.4381944444444445 0.40625 0.3854166666666667 0.3645833333333333 0.31805555555555554 0.29444444444444445 0.2763888888888889 0.2534722222222222 0.24375 0.2277777777777777 0.2243055555555556 0.2222222222222222 0.22013888888888888 0.2180555555555556 0.21666666666666667 0.21666666666666667 0.21666666666666667 0.21597222222222226 0.2152777777777778 0.2125 0.21180555555555555 0.21180555555555555 0.2111111111111111 0.21041666666666667 0.20972222222222225 0.2180555555555556 0.22916666666666666 0.25069444444444444 0.2902777777777778 0.3416666666666667 0.4916666666666666 0.5736111111111111 0.6902777777777778 0.7541666666666667 0.8020833333333334 0.8486111111111111 0.8555555555555555 0.8555555555555555 0.8555555555555555 0.8555555555555555 0.8631944444444445 0.8756944444444444 0.8875 0.8972222222222223 0.9013888888888888 0.9027777777777778,0.8314814814814815 0.8231481481481482 0.812962962962963 0.8009259259259259 0.7888888888888889 0.7759259259259259 0.7527777777777778 0.7472222222222222 0.7351851851851852 0.7148148148148148 0.6657407407407407 0.6407407407407407 0.5944444444444444 0.5592592592592592 0.5194444444444444 0.4398148148148148 0.4055555555555556 0.3787037037037037 0.34259259259259256 0.32592592592592595 0.2898148148148149 0.2833333333333333 0.2805555555555556 0.2768518518518519 0.26481481481481484 0.25648148148148153 0.25555555555555554 0.25555555555555554 0.25462962962962965 0.2518518518518519 0.24537037037037035 0.2444444444444445 0.2444444444444445 0.2444444444444445 0.2425925925925925 0.2379629629629629 0.2222222222222222 0.21759259259259256 0.21018518518518514 0.19907407407407407 0.18611111111111112 0.15648148148148144 0.15462962962962967 0.1592592592592592 0.1611111111111111 0.1601851851851852 0.15000000000000002 0.14722222222222225 0.14722222222222225 0.14722222222222225 0.14722222222222225 0.14537037037037034 0.14537037037037034 0.14537037037037034 0.14722222222222225 0.14814814814814814 0.14814814814814814,266.5 286.5 306.5 326.5 346.5 366.5 386.5 406.5 426.5 446.5 466.5 486.5 506.5 526.5 546.5 566.5 586.5 606.5 626.5 646.5 666.5 686.5 706.5 726.5 746.5 766.5 786.5 806.5 826.5 846.5 866.5 886.5 906.5 926.5 946.5 966.5 986.5 1006.5 1026.5 1046.5 1066.5 1086.5 1106.5 1126.5 1146.5 1166.5 1186.5 1206.5 1226.5 1246.5 1266.5 1286.5 1306.5 1326.5 1346.5 1366.5 1386.5
cb_04,31.0,enc_trial,stim,response,STEM students,1085.4000000007507,enc_trial,1.0,31.0,s_s_05_2,student_stem,fold-a,lab goggles,4.0,unique,close,paired,s_s_05_2.jpg,stem,student-b1,STEM students,Fine Arts students,sub-37,1.0,1.0,1.0,1.0,0.4993055555555556 0.4958333333333334 0.4895833333333333 0.4666666666666667 0.44583333333333336 0.4118055555555555 0.4048611111111111 0.4006944444444445 0.3993055555555556 0.4 0.4305555555555556 0.4486111111111111 0.4618055555555556 0.46875 0.4694444444444445 0.44583333333333336 0.4284722222222222 0.4111111111111111 0.3868055555555556 0.3541666666666667 0.2902777777777778 0.25 0.22361111111111112 0.19652777777777766 0.17083333333333334 0.1486111111111111 0.14444444444444446 0.14375 0.14375 0.14375 0.14027777777777778 0.13680555555555554 0.13472222222222222 0.13333333333333333,0.8296296296296296 0.8138888888888889 0.7888888888888889 0.7351851851851852 0.6953703703703704 0.5888888888888889 0.5305555555555556 0.47592592592592603 0.44166666666666665 0.4296296296296296 0.3851851851851852 0.3592592592592593 0.3398148148148148 0.325 0.3148148148148148 0.2768518518518519 0.25648148148148153 0.2407407407407407 0.2296296296296297 0.2222222222222222 0.20277777777777767 0.19166666666666665 0.1907407407407408 0.19166666666666665 0.19259259259259254 0.18611111111111112 0.18425925925925926 0.18425925925925926 0.18425925925925926 0.18333333333333326 0.17129629629629628 0.1611111111111111 0.15462962962962967 0.1527777777777778,416.7000000000117 436.7000000000117 456.7000000000117 476.7000000000117 496.7000000000117 516.7000000000116 536.7000000000116 556.7000000000116 576.7000000000116 596.7000000000116 616.7000000000116 636.7000000000116 656.7000000000116 676.7000000000116 696.7000000000116 716.7000000000116 736.7000000000116 756.7000000000116 776.7000000000116 796.7000000000116 816.7000000000116 836.7000000000116 856.7000000000116 876.7000000000116 896.7000000000116 916.7000000000116 936.7000000000116 956.7000000000116 976.7000000000116 996.7000000000116 1016.7000000000116 1036.7000000000116 1056.7000000000116 1076.7000000000116
cb_04,32.0,enc_trial,stim,response,STEM students,898.4999999992433,enc_trial,1.0,32.0,s_sh_14_2,student_shared,fold-b,printer,4.0,competing,close,paired,s_sh_14_2.jpg,,student-b1,STEM students,Fine Arts students,sub-37,1.0,1.0,0.0,0.0,0.5013888888888889 0.5006944444444444 0.5006944444444444 0.5006944444444444 0.5 0.5 0.4979166666666667 0.4944444444444445 0.4916666666666666 0.4888888888888889 0.4833333333333333 0.4645833333333334 0.44722222222222224 0.43472222222222223 0.4256944444444444 0.4180555555555556 0.4069444444444445 0.4041666666666667 0.4006944444444445 0.3881944444444445 0.3729166666666667 0.33055555555555555 0.3090277777777778 0.2902777777777778 0.2625 0.2458333333333333 0.21666666666666667 0.20625 0.19722222222222224 0.19166666666666668 0.17430555555555555 0.16319444444444445 0.15069444444444444 0.13819444444444445 0.12916666666666668 0.12569444444444444,0.8407407407407408 0.8388888888888889 0.837962962962963 0.8361111111111111 0.8333333333333334 0.8314814814814815 0.8203703703703704 0.8092592592592592 0.7962962962962963 0.7805555555555556 0.75 0.6898148148148149 0.6472222222222221 0.612037037037037 0.5759259259259261 0.5342592592592592 0.4685185185185186 0.4518518518518518 0.437037037037037 0.4175925925925926 0.39814814814814814 0.33518518518518514 0.3037037037037037 0.2833333333333333 0.2601851851851852 0.24629629629629635 0.2231481481481481 0.21203703703703705 0.20370370370370366 0.19907407407407407 0.18333333333333326 0.1685185185185185 0.1509259259259259 0.13888888888888884 0.1333333333333333 0.13240740740740742,133.29999999998836 153.2999999999884 173.29999999998836 193.29999999998842 213.29999999998842 233.29999999998842 253.29999999998842 273.2999999999884 293.29999999998836 313.29999999998836 333.29999999998836 353.2999999999884 373.2999999999884 393.2999999999884 413.2999999999884 433.2999999999884 453.2999999999884 473.2999999999884 493.2999999999884 513.2999999999884 533.2999999999884 553.2999999999884 573.2999999999884 593.2999999999884 613.2999999999884 633.2999999999884 653.2999999999884 673.2999999999884 693.2999999999884 713.2999999999884 733.2999999999884 753.2999999999884 773.2999999999884 793.2999999999884 813.2999999999884 833.2999999999884
cb_04,33.0,enc_trial,stim,response,STEM students,1285.299999998504,enc_trial,1.0,33.0,s_sh_10_2,student_shared,fold-b,scissors,4.0,competing,close,paired,s_sh_10_2.jpg,,student-b1,STEM students,Fine Arts students,sub-37,0.0,0.0,0.0,1.0,0.5027777777777778 0.5 0.4951388888888889 0.4847222222222222 0.4736111111111111 0.4618055555555556 0.4298611111111112 0.41041666666666665 0.3805555555555555 0.3583333333333333 0.3173611111111111 0.2972222222222222 0.2798611111111111 0.26666666666666666 0.2576388888888889 0.2451388888888889 0.24027777777777776 0.23680555555555555 0.2361111111111111 0.24097222222222225 0.25416666666666665 0.2618055555555556 0.36041666666666666 0.4069444444444445 0.4486111111111111 0.4854166666666666 0.5298611111111111 0.5277777777777778 0.5180555555555556 0.4902777777777778 0.4590277777777778 0.4590277777777778 0.4430555555555555 0.2986111111111111 0.26666666666666666 0.2423611111111111 0.2222222222222222 0.22013888888888888 0.21944444444444444 0.21944444444444444 0.21944444444444444 0.21458333333333326 0.2013888888888889 0.18333333333333326 0.16458333333333333 0.1388888888888889 0.12638888888888888 0.12152777777777778 0.12083333333333332 0.12083333333333332 0.12083333333333332 0.12083333333333332 0.12083333333333332 0.12152777777777778 0.12222222222222222,0.8268518518518518 0.8194444444444444 0.8055555555555556 0.7787037037037037 0.7555555555555555 0.7333333333333334 0.674074074074074 0.637962962962963 0.5805555555555555 0.537962962962963 0.4527777777777777 0.4092592592592592 0.3657407407407407 0.3240740740740741 0.2935185185185185 0.2666666666666667 0.25555555555555554 0.2425925925925925 0.2305555555555555 0.21203703703703705 0.1972222222222222 0.19259259259259254 0.17592592592592593 0.17407407407407405 0.17314814814814816 0.17314814814814816 0.17314814814814816 0.17222222222222228 0.17129629629629628 0.1694444444444444 0.16574074074074074 0.16574074074074074 0.16388888888888886 0.16481481481481486 0.16388888888888886 0.15648148148148144 0.1518518518518519 0.1527777777777778 0.15648148148148144 0.15648148148148144 0.15648148148148144 0.15833333333333333 0.1620370370370371 0.1685185185185185 0.1694444444444444 0.15740740740740744 0.14629629629629626 0.1425925925925926 0.14166666666666672 0.14166666666666672 0.14166666666666672 0.14166666666666672 0.1425925925925926 0.1425925925925926 0.1425925925925926,166.60000000000582 186.60000000000585 206.60000000000585 226.60000000000585 246.60000000000585 266.6000000000058 286.6000000000058 306.6000000000058 326.6000000000058 346.6000000000058 366.6000000000058 386.6000000000058 406.6000000000058 426.6000000000058 446.6000000000058 466.6000000000058 486.6000000000058 506.6000000000058 526.6000000000058 546.6000000000058 566.6000000000057 586.6000000000057 606.6000000000057 626.6000000000057 646.6000000000057 666.6000000000057 686.6000000000057 706.6000000000058 726.6000000000058 746.6000000000058 766.6000000000058 786.6000000000058 806.6000000000058 826.6000000000058 846.6000000000058 866.6000000000058 886.6000000000058 906.6000000000058 926.6000000000058 946.6000000000058 966.6000000000058 986.6000000000058 1006.6000000000058 1026.6000000000058 1046.6000000000058 1066.6000000000058 1086.6000000000058 1106.6000000000058 1126.6000000000058 1146.6000000000058 1166.6000000000058 1186.6000000000058 1206.6000000000058 1226.6000000000058 1246.6000000000058
cb_04,34.0,enc_trial,stim,response,STEM students,1562.9999999985157,enc_trial,1.0,34.0,s_a_09_2,student_art,fold-e,picture frame,4.0,unique,far,paired,s_a_09_2.jpg,art,student-b1,STEM students,Fine Arts students,sub-37,0.0,0.0,1.0,0.0,0.4965277777777778 0.4958333333333334 0.4944444444444445 0.4916666666666666 0.4895833333333333 0.4798611111111111 0.4743055555555555 0.4701388888888889 0.4666666666666667 0.4652777777777778 0.4645833333333334 0.4618055555555556 0.4569444444444444 0.4479166666666667 0.4395833333333333 0.4180555555555556 0.4111111111111111 0.40208333333333335 0.3902777777777778 0.37222222222222223 0.3368055555555556 0.32083333333333336 0.3069444444444445 0.2756944444444445 0.2569444444444444 0.22916666666666666 0.21736111111111112 0.20902777777777776 0.19652777777777766 0.18819444444444444 0.1868055555555556 0.1868055555555556 0.1875 0.18888888888888888 0.19166666666666668 0.19722222222222224 0.20208333333333334 0.20277777777777767 0.20625 0.21458333333333326 0.2361111111111111 0.2416666666666667 0.24097222222222225 0.2381944444444445 0.2326388888888889 0.21041666666666667 0.19375 0.18125 0.17152777777777778 0.16944444444444445 0.16875 0.16875 0.16875 0.16875 0.16875 0.16944444444444445 0.1701388888888889 0.1701388888888889 0.1701388888888889 0.1701388888888889 0.1701388888888889 0.1701388888888889 0.1701388888888889 0.1701388888888889 0.1701388888888889 0.16875 0.1638888888888889 0.16319444444444445,0.837962962962963 0.8342592592592593 0.8268518518518518 0.812037037037037 0.8009259259259259 0.7592592592592593 0.7388888888888889 0.7268518518518519 0.7175925925925926 0.7148148148148148 0.7083333333333333 0.7 0.6814814814814815 0.6509259259259259 0.6194444444444445 0.512962962962963 0.4731481481481481 0.437962962962963 0.4111111111111111 0.3833333333333333 0.3277777777777777 0.29907407407407405 0.2731481481481481 0.2351851851851852 0.21759259259259256 0.18518518518518529 0.17222222222222228 0.16666666666666666 0.16388888888888886 0.16388888888888886 0.1620370370370371 0.1611111111111111 0.1592592592592592 0.15740740740740744 0.15648148148148144 0.15555555555555556 0.15370370370370368 0.15370370370370368 0.1518518518518519 0.14814814814814814 0.1435185185185185 0.1425925925925926 0.1425925925925926 0.1425925925925926 0.14166666666666672 0.14166666666666672 0.1435185185185185 0.1444444444444445 0.13981481481481484 0.13796296296296295 0.13703703703703707 0.13703703703703707 0.13703703703703707 0.13703703703703707 0.13703703703703707 0.13703703703703707 0.13703703703703707 0.13703703703703707 0.13703703703703707 0.13703703703703707 0.13703703703703707 0.13703703703703707 0.13703703703703707 0.13703703703703707 0.13703703703703707 0.13703703703703707 0.13796296296296295 0.13796296296296295,200.0 220.0 240.0 260.0 280.0 300.0 320.0 340.0 360.0 380.0 400.0 420.0 440.0 460.0 480.0 500.0 520.0 540.0 560.0 580.0 600.0 620.0 640.0 660.0 680.0 700.0 720.0 740.0 760.0 780.0 800.0 820.0 840.0 860.0 880.0 900.0 920.0 940.0 960.0 980.0 1000.0 1020.0 1040.0 1060.0 1080.0 1100.0 1120.0 1140.0 1160.0 1180.0 1200.0 1220.0 1240.0 1260.0 1280.0 1300.0 1320.0 1340.0 1360.0 1380.0 1400.0 1420.0 1440.0 1460.0 1480.0 1500.0 1520.0 1540.0
cb_04,35.0,enc_trial,stim,response,Fine Arts students,1839.6000000000056,enc_trial,1.0,35.0,s_a_10_2,student_art,fold-a,tripod,4.0,unique,close,paired,s_a_10_2.jpg,art,student-b1,STEM students,Fine Arts students,sub-37,1.0,1.0,0.0,1.0,0.4979166666666667 0.4944444444444445 0.4888888888888889 0.4819444444444445 0.4736111111111111 0.4680555555555556 0.4555555555555556 0.4506944444444445 0.4465277777777778 0.4375 0.4270833333333333 0.4208333333333333 0.41597222222222224 0.4097222222222222 0.4013888888888889 0.39375 0.3715277777777778 0.3631944444444444 0.3541666666666667 0.3451388888888889 0.3215277777777778 0.3104166666666667 0.30069444444444443 0.2888888888888889 0.27847222222222223 0.2708333333333333 0.2659722222222222 0.2673611111111111 0.2722222222222222 0.2770833333333333 0.2770833333333333 0.36875 0.39166666666666666 0.40208333333333335 0.4041666666666667 0.3979166666666665 0.3875 0.37083333333333335 0.3576388888888889 0.3472222222222222 0.3069444444444445 0.27152777777777776 0.24305555555555555 0.2277777777777777 0.2180555555555556 0.2076388888888889 0.1763888888888889 0.16805555555555554 0.16180555555555556 0.15833333333333333 0.15694444444444444 0.15694444444444444 0.1625 0.1625 0.1625 0.2263888888888889 0.2465277777777778 0.33611111111111114 0.3513888888888889 0.36041666666666666 0.36041666666666666 0.3541666666666667 0.3541666666666667 0.3541666666666667 0.3541666666666667 0.31319444444444444 0.3229166666666667 0.35347222222222224 0.39166666666666666 0.4326388888888889 0.49375 0.6652777777777777 0.7298611111111111 0.7888888888888889 0.8409722222222222 0.8875 0.9680555555555556 0.9854166666666668 0.9930555555555556 0.9944444444444444 0.9944444444444444 0.9944444444444444 0.9944444444444444 0.9944444444444444 0.9923611111111112 0.9590277777777778 0.9381944444444444 0.9284722222222224 0.9194444444444444 0.9090277777777778 0.9076388888888888,0.8296296296296296 0.8222222222222222 0.812962962962963 0.8009259259259259 0.7888888888888889 0.7805555555555556 0.7648148148148148 0.7583333333333333 0.7518518518518519 0.7388888888888889 0.7231481481481481 0.712037037037037 0.7018518518518518 0.6888888888888889 0.6731481481481482 0.6601851851851852 0.6175925925925926 0.5972222222222222 0.575 0.5527777777777778 0.4861111111111112 0.4592592592592593 0.4351851851851852 0.40648148148148144 0.3796296296296297 0.3564814814814815 0.312962962962963 0.30092592592592593 0.2833333333333333 0.275 0.275 0.2324074074074074 0.22685185185185186 0.225 0.2222222222222222 0.21111111111111114 0.2064814814814815 0.20277777777777767 0.20092592592592595 0.19907407407407407 0.17962962962962958 0.1601851851851852 0.15000000000000002 0.14166666666666672 0.1342592592592593 0.12685185185185188 0.11018518518518516 0.10555555555555553 0.0981481481481481 0.09444444444444444 0.09259259259259256 0.09259259259259256 0.09259259259259256 0.09259259259259256 0.09259259259259256 0.09537037037037033 0.09537037037037033 0.10462962962962964 0.10833333333333328 0.11203703703703703 0.11203703703703703 0.1074074074074074 0.1074074074074074 0.1074074074074074 0.1074074074074074 0.0888888888888889 0.08611111111111114 0.08425925925925926 0.08425925925925926 0.08611111111111114 0.08796296296296291 0.0907407407407408 0.09537037037037033 0.10092592592592596 0.10277777777777776 0.10277777777777776 0.10277777777777776 0.10370370370370374 0.1074074074074074 0.1074074074074074 0.10833333333333328 0.10833333333333328 0.10833333333333328 0.10833333333333328 0.11111111111111116 0.14166666666666672 0.15555555555555556 0.15648148148148144 0.1509259259259259 0.14722222222222225 0.14629629629629626,0.0 20.0 40.0 60.0 80.0 100.0 120.0 140.0 160.0 180.0 200.0 220.0 240.0 260.0 280.0 300.0 320.0 340.0 360.0 380.0 400.0 420.0 440.0 460.0 480.0 500.0 520.0 540.0 560.0 580.0 600.0 620.0 640.0 660.0 680.0 700.0 720.0 740.0 760.0 780.0 800.0 820.0 840.0 860.0 880.0 900.0 920.0 940.0 960.0 980.0 1000.0 1020.0 1040.0 1060.0 1080.0 1100.0 1120.0 1140.0 1160.0 1180.0 1200.0 1220.0 1240.0 1260.0 1280.0 1300.0 1320.0 1340.0 1360.0 1380.0 1400.0 1420.0 1440.0 1460.0 1480.0 1500.0 1520.0 1540.0 1560.0 1580.0 1600.0 1620.0 1640.0 1660.0 1680.0 1700.0 1720.0 1740.0 1760.0 1780.0 1800.0
