Current Spreadsheet,Trial Number,Display,Screen,Response Type,Response,Reaction Time,display,block,block_trial,stimulus_id,expected_goal,fold,stimulus_name,c_group,condition,within_block_dist,paired_status,stimulus_path,expected_location,block_split,respStim_1,respStim_2,sub_label,acc,both_enc_acc,assoc_stim1_acc,assoc_stim2_acc,x_pos,y_pos,time_trajectories
cb_08,1.0,enc_trial,stim,response,STEM students,1572.000000011918,enc_trial,1.0,1.0,s_s_11_1,student_stem,fold-d,scientific scale,8.0,unique,close,paired,s_s_11_1.jpg,stem,student-b1,STEM students,Fine Arts students,sub-12,1.0,1.0,1.0,1.0,0.551171875 0.558984375 0.562109375 0.563671875 0.563671875 0.563671875 0.563671875 0.563671875 0.563671875 0.563671875 0.563671875 0.563671875 0.563671875 0.563671875 0.563671875 0.563671875 0.565234375 0.569921875 0.573828125 0.576953125 0.579296875 0.583203125 0.589453125 0.598046875 0.612890625 0.630078125 0.635546875 0.647265625 0.651953125 0.652734375 0.649609375 0.643359375 0.634765625 0.629296875 0.626953125 0.626953125 0.630078125 0.637890625 0.649609375 0.657421875 0.673828125 0.686328125 0.695703125 0.716015625 0.736328125 0.787890625 0.843359375 0.869921875 0.891015625 0.892578125 0.892578125 0.874609375 0.842578125 0.734765625 0.610546875 0.548046875 0.483203125 0.450390625 0.408203125 0.385546875 0.366015625 0.344140625 0.329296875 0.320703125 0.308203125 0.301171875 0.293359375 0.287890625 0.280078125 0.259765625 0.228515625 0.214453125 0.197265625 0.187890625 0.180859375 0.179296875 0.176953125 0.172265625 0.170703125,0.775 0.7625 0.75625 0.7541666666666667 0.753125 0.753125 0.753125 0.753125 0.753125 0.753125 0.753125 0.753125 0.753125 0.7489583333333334 0.7395833333333333 0.7302083333333333 0.7052083333333333 0.6802083333333333 0.6572916666666666 0.6302083333333333 0.615625 0.5895833333333333 0.5572916666666667 0.5333333333333333 0.5010416666666666 0.46875 0.4583333333333334 0.42604166666666665 0.4052083333333333 0.3854166666666666 0.3604166666666667 0.3427083333333333 0.31562500000000004 0.2989583333333333 0.2833333333333333 0.2666666666666667 0.25520833333333337 0.2354166666666667 0.215625 0.20416666666666672 0.1875 0.17500000000000004 0.1645833333333333 0.15208333333333335 0.13958333333333328 0.125 0.10833333333333328 0.1020833333333333 0.09479166666666672 0.09479166666666672 0.09479166666666672 0.08958333333333335 0.0854166666666667 0.0854166666666667 0.0854166666666667 0.0854166666666667 0.0854166666666667 0.0854166666666667 0.0854166666666667 0.0854166666666667 0.0854166666666667 0.0854166666666667 0.0854166666666667 0.0854166666666667 0.08854166666666663 0.09062499999999996 0.09479166666666672 0.09583333333333333 0.09687500000000004 0.1020833333333333 0.11145833333333333 0.11250000000000004 0.11250000000000004 0.11250000000000004 0.11250000000000004 0.11250000000000004 0.11250000000000004 0.11250000000000004 0.11250000000000004,0.0 20.0 40.0 60.0 80.0 100.0 120.0 140.0 160.0 180.0 200.0 220.0 240.0 260.0 280.0 300.0 320.0 340.0 360.0 380.0 400.0 420.0 440.0 460.0 480.0 500.0 520.0 540.0 560.0 580.0 600.0 620.0 640.0 660.0 680.0 700.0 720.0 740.0 760.0 780.0 800.0 820.0 840.0 860.0 880.0 900.0 920.0 940.0 960.0 980.0 1000.0 1020.0 1040.0 1060.0 1080.0 1100.0 1120.0 1140.0 1160.0 1180.0 1200.0 1220.0 1240.0 1260.0 1280.0 1300.0 1320.0 1340.0 1360.0 1380.0 1400.0 1420.0 1440.0 1460.0 1480.0 1500.0 1520.0 1540.0 1560.0
cb_08,2.0,enc_trial,stim,response,STEM students,1814.7000000357655,enc_trial,1.0,2.0,s_s_15_1,student_stem,fold-c,jumper cables,8.0,unique,far,paired,s_s_15_1.jpg,stem,student-b1,STEM students,Fine Arts students,sub-12,1.0,1.0,1.0,1.0,0.512890625 0.514453125 0.517578125 0.520703125 0.523046875 0.524609375 0.524609375 0.524609375 0.526171875 0.526171875 0.526171875 0.526171875 0.526171875 0.526171875 0.526953125 0.527734375 0.530859375 0.531640625 0.535546875 0.535546875 0.535546875 0.533203125 0.532421875 0.532421875 0.543359375 0.551171875 0.600390625 0.646484375 0.667578125 0.683984375 0.689453125 0.689453125 0.689453125 0.690234375 0.694921875 0.712109375 0.735546875 0.786328125 0.811328125 0.833203125 0.839453125 0.839453125 0.837890625 0.833203125 0.833203125 0.833203125 0.833984375 0.837109375 0.837109375 0.837109375 0.833203125 0.827734375 0.808203125 0.766015625 0.725390625 0.653515625 0.578515625 0.540234375 0.498828125 0.483203125 0.429296875 0.369140625 0.323828125 0.272265625 0.247265625 0.243359375 0.240234375 0.239453125 0.239453125 0.237890625 0.233984375 0.233203125 0.232421875 0.230859375 0.226953125 0.226953125 0.221484375 0.210546875 0.198046875 0.173046875 0.155859375 0.139453125 0.134765625 0.133984375 0.133203125 0.127734375 0.121484375 0.114453125 0.112890625,0.8072916666666666 0.8041666666666667 0.7916666666666666 0.7822916666666666 0.775 0.7708333333333334 0.7697916666666667 0.7677083333333333 0.7666666666666666 0.7666666666666666 0.7625 0.7572916666666667 0.75 0.7375 0.7229166666666667 0.6979166666666667 0.675 0.6666666666666667 0.6447916666666667 0.63125 0.61875 0.5958333333333333 0.5833333333333333 0.5666666666666667 0.5416666666666667 0.5322916666666666 0.4927083333333333 0.4583333333333334 0.44166666666666665 0.41875 0.409375 0.39375 0.37083333333333335 0.35416666666666663 0.33854166666666663 0.3083333333333333 0.2885416666666667 0.25625 0.23854166666666665 0.225 0.21666666666666667 0.21354166666666666 0.20416666666666672 0.19166666666666665 0.1875 0.18125 0.171875 0.16249999999999998 0.15833333333333333 0.1489583333333333 0.14166666666666672 0.13437500000000002 0.12291666666666667 0.10729166666666667 0.09479166666666672 0.07708333333333328 0.054166666666666696 0.044791666666666674 0.033333333333333326 0.029166666666666674 0.025000000000000026 0.025000000000000026 0.025000000000000026 0.025000000000000026 0.025000000000000026 0.025000000000000026 0.025000000000000026 0.025000000000000026 0.025000000000000026 0.025000000000000026 0.025000000000000026 0.025000000000000026 0.027083333333333348 0.034375000000000044 0.04374999999999996 0.04583333333333328 0.05312499999999998 0.061458333333333275 0.06770833333333337 0.08125000000000004 0.09062499999999996 0.09999999999999998 0.1010416666666667 0.1020833333333333 0.10312500000000002 0.10624999999999996 0.10833333333333328 0.11145833333333333 0.11354166666666665,0.0 20.0 40.0 60.0 80.0 100.0 120.0 140.0 160.0 180.0 200.0 220.0 240.0 260.0 280.0 300.0 320.0 340.0 360.0 380.0 400.0 420.0 440.0 460.0 480.0 500.0 520.0 540.0 560.0 580.0 600.0 620.0 640.0 660.0 680.0 700.0 720.0 740.0 760.0 780.0 800.0 820.0 840.0 860.0 880.0 900.0 920.0 940.0 960.0 980.0 1000.0 1020.0 1040.0 1060.0 1080.0 1100.0 1120.0 1140.0 1160.0 1180.0 1200.0 1220.0 1240.0 1260.0 1280.0 1300.0 1320.0 1340.0 1360.0 1380.0 1400.0 1420.0 1440.0 1460.0 1480.0 1500.0 1520.0 1540.0 1560.0 1580.0 1600.0 1620.0 1640.0 1660.0 1680.0 1700.0 1720.0 1740.0 1760.0
cb_08,3.0,enc_trial,stim,response,Fine Arts students,1871.1000000357599,enc_trial,1.0,3.0,s_sh_24_1,student_shared,fold-b-single,desk organizer,8.0,competing,,single,s_sh_24_1.jpg,,student-b1,STEM students,Fine Arts students,sub-12,1.0,,1.0,,0.521484375 0.522265625 0.526953125 0.530859375 0.542578125 0.555859375 0.564453125 0.572265625 0.575390625 0.577734375 0.583203125 0.589453125 0.601953125 0.623046875 0.639453125 0.661328125 0.673828125 0.679296875 0.683203125 0.683203125 0.686328125 0.698046875 0.712890625 0.743359375 0.763671875 0.786328125 0.795703125 0.803515625 0.809765625 0.814453125 0.815234375 0.816796875 0.818359375 0.819921875 0.821484375 0.823828125 0.826171875 0.826171875 0.826953125 0.826953125 0.826953125 0.826953125 0.826953125 0.826953125 0.826953125 0.826953125 0.826953125 0.826953125 0.826953125 0.822265625 0.820703125 0.816015625 0.808203125 0.801953125 0.801171875 0.801171875 0.801171875 0.801171875 0.801171875 0.801953125 0.803515625 0.808203125 0.819140625 0.829296875 0.837890625 0.847265625 0.851953125 0.852734375 0.852734375 0.852734375 0.852734375 0.852734375 0.852734375 0.852734375 0.852734375 0.852734375 0.852734375 0.852734375 0.852734375 0.852734375 0.852734375 0.852734375 0.853515625,0.803125 0.803125 0.7916666666666666 0.7791666666666667 0.75 0.7166666666666667 0.6916666666666667 0.6604166666666667 0.6447916666666667 0.63125 0.6104166666666666 0.59375 0.5625 0.5208333333333333 0.4947916666666666 0.4604166666666667 0.44166666666666665 0.425 0.4072916666666667 0.39375 0.3697916666666666 0.34375 0.32291666666666663 0.296875 0.2833333333333333 0.2677083333333333 0.2572916666666667 0.2489583333333333 0.234375 0.22187500000000004 0.21666666666666667 0.2114583333333333 0.20729166666666665 0.2 0.1947916666666667 0.19062500000000004 0.18333333333333326 0.18125 0.17812499999999998 0.17500000000000004 0.17083333333333328 0.16770833333333335 0.16562500000000002 0.1645833333333333 0.16249999999999998 0.16145833333333334 0.15937500000000004 0.15833333333333333 0.15520833333333328 0.1489583333333333 0.14583333333333334 0.14166666666666672 0.13645833333333335 0.1333333333333333 0.1322916666666667 0.1322916666666667 0.1322916666666667 0.1322916666666667 0.1322916666666667 0.1322916666666667 0.1322916666666667 0.1322916666666667 0.1322916666666667 0.1322916666666667 0.1322916666666667 0.1322916666666667 0.1322916666666667 0.1322916666666667 0.1322916666666667 0.1322916666666667 0.1322916666666667 0.1322916666666667 0.1322916666666667 0.1322916666666667 0.1322916666666667 0.1322916666666667 0.1322916666666667 0.1322916666666667 0.1322916666666667 0.1322916666666667 0.1322916666666667 0.1322916666666667 0.1322916666666667,229.3000000000029 249.3000000000029 269.3000000000029 289.30000000000285 309.30000000000285 329.30000000000285 349.3000000000029 369.3000000000029 389.3000000000029 409.3000000000029 429.3000000000029 449.3000000000029 469.3000000000029 489.3000000000029 509.3000000000029 529.3000000000029 549.3000000000029 569.3000000000029 589.3000000000029 609.3000000000029 629.3000000000029 649.3000000000029 669.3000000000029 689.3000000000029 709.3000000000029 729.3000000000029 749.3000000000029 769.3000000000029 789.3000000000029 809.3000000000029 829.3000000000029 849.3000000000029 869.3000000000029 889.3000000000029 909.3000000000028 929.3000000000028 949.3000000000028 969.3000000000028 989.3000000000028 1009.3000000000028 1029.3000000000031 1049.3000000000031 1069.3000000000031 1089.3000000000031 1109.3000000000031 1129.3000000000031 1149.3000000000031 1169.3000000000031 1189.3000000000031 1209.3000000000031 1229.3000000000031 1249.3000000000031 1269.3000000000031 1289.3000000000031 1309.3000000000031 1329.3000000000031 1349.3000000000031 1369.3000000000031 1389.3000000000031 1409.3000000000031 1429.3000000000031 1449.3000000000031 1469.3000000000031 1489.3000000000031 1509.3000000000031 1529.3000000000031 1549.3000000000031 1569.3000000000031 1589.3000000000031 1609.3000000000031 1629.3000000000031 1649.3000000000031 1669.3000000000031 1689.3000000000031 1709.3000000000031 1729.3000000000031 1749.3000000000031 1769.3000000000031 1789.3000000000031 1809.3000000000031 1829.3000000000031 1849.3000000000031 1869.3000000000031
cb_08,4.0,enc_trial,stim,response,Fine Arts students,2052.400000035763,enc_trial,1.0,4.0,s_sh_19_1,student_shared,fold-a,portable plastic drawer,8.0,competing,close,paired,s_sh_19_1.jpg,,student-b1,STEM students,Fine Arts students,sub-12,1.0,1.0,0.0,0.0,0.478515625 0.478515625 0.478515625 0.478515625 0.478515625 0.478515625 0.478515625 0.478515625 0.478515625 0.481640625 0.487890625 0.501953125 0.512109375 0.525390625 0.537890625 0.544921875 0.551953125 0.554296875 0.558203125 0.558203125 0.559765625 0.563671875 0.563671875 0.563671875 0.563671875 0.563671875 0.563671875 0.563671875 0.564453125 0.566796875 0.568359375 0.569921875 0.572265625 0.573046875 0.573828125 0.575390625 0.576953125 0.583203125 0.594921875 0.602734375 0.614453125 0.618359375 0.620703125 0.620703125 0.620703125 0.620703125 0.620703125 0.619921875 0.618359375 0.617578125 0.617578125 0.617578125 0.617578125 0.617578125 0.617578125 0.617578125 0.614453125 0.611328125 0.596484375 0.571484375 0.526171875 0.442578125 0.395703125 0.352734375 0.330859375 0.319921875 0.305078125 0.289453125 0.269140625 0.237890625 0.220703125 0.208984375 0.207421875 0.206640625 0.206640625 0.206640625 0.206640625 0.206640625 0.206640625 0.214453125 0.251953125 0.316796875 0.438671875 0.512109375 0.574609375 0.624609375 0.640234375 0.656640625 0.672265625 0.685546875 0.702734375 0.713671875 0.720703125 0.728515625 0.733984375 0.748828125 0.772265625 0.797265625 0.839453125 0.859765625 0.868359375 0.870703125,0.8416666666666667 0.8416666666666667 0.8416666666666667 0.8416666666666667 0.8416666666666667 0.8416666666666667 0.8416666666666667 0.8416666666666667 0.8416666666666667 0.8375 0.825 0.8010416666666667 0.7833333333333333 0.7541666666666667 0.7239583333333333 0.7041666666666666 0.678125 0.6604166666666667 0.6416666666666666 0.6166666666666667 0.6010416666666667 0.5833333333333333 0.56875 0.5572916666666667 0.5416666666666667 0.5302083333333334 0.5208333333333333 0.509375 0.5 0.4895833333333334 0.4760416666666667 0.46875 0.4583333333333334 0.4520833333333333 0.4458333333333333 0.4385416666666667 0.43333333333333335 0.4239583333333333 0.415625 0.409375 0.4010416666666666 0.39583333333333337 0.3916666666666667 0.3895833333333333 0.3854166666666666 0.37916666666666665 0.371875 0.3666666666666667 0.3572916666666667 0.3510416666666667 0.34687500000000004 0.3395833333333333 0.3354166666666667 0.328125 0.31875 0.3104166666666667 0.2958333333333333 0.28541666666666665 0.265625 0.2479166666666667 0.22916666666666666 0.20520833333333333 0.1927083333333333 0.1802083333333333 0.17083333333333328 0.16562500000000002 0.16041666666666665 0.15625 0.15000000000000002 0.14270833333333333 0.13854166666666667 0.1333333333333333 0.1333333333333333 0.1333333333333333 0.1333333333333333 0.1333333333333333 0.1333333333333333 0.1333333333333333 0.1333333333333333 0.1322916666666667 0.1322916666666667 0.1322916666666667 0.1322916666666667 0.1322916666666667 0.1322916666666667 0.1322916666666667 0.1322916666666667 0.13437500000000002 0.13854166666666667 0.14166666666666672 0.14583333333333334 0.1479166666666667 0.15000000000000002 0.15208333333333335 0.15312499999999996 0.15729166666666672 0.15729166666666672 0.15729166666666672 0.15729166666666672 0.15729166666666672 0.15729166666666672 0.15729166666666672,0.0 20.0 40.0 60.0 80.0 100.0 120.0 140.0 160.0 180.0 200.0 220.0 240.0 260.0 280.0 300.0 320.0 340.0 360.0 380.0 400.0 420.0 440.0 460.0 480.0 500.0 520.0 540.0 560.0 580.0 600.0 620.0 640.0 660.0 680.0 700.0 720.0 740.0 760.0 780.0 800.0 820.0 840.0 860.0 880.0 900.0 920.0 940.0 960.0 980.0 1000.0 1020.0 1040.0 1060.0 1080.0 1100.0 1120.0 1140.0 1160.0 1180.0 1200.0 1220.0 1240.0 1260.0 1280.0 1300.0 1320.0 1340.0 1360.0 1380.0 1400.0 1420.0 1440.0 1460.0 1480.0 1500.0 1520.0 1540.0 1560.0 1580.0 1600.0 1620.0 1640.0 1660.0 1680.0 1700.0 1720.0 1740.0 1760.0 1780.0 1800.0 1820.0 1840.0 1860.0 1880.0 1900.0 1920.0 1940.0 1960.0 1980.0 2000.0 2020.0
cb_08,5.0,enc_trial,stim,response,STEM students,2247.300000000003,enc_trial,1.0,5.0,s_sh_12_1,student_shared,fold-b-single,binder,8.0,competing,,single,s_sh_12_1.jpg,,student-b1,STEM students,Fine Arts students,sub-12,1.0,,1.0,,0.491015625 0.493359375 0.495703125 0.501171875 0.508203125 0.512109375 0.519921875 0.524609375 0.528515625 0.531640625 0.535546875 0.542578125 0.548828125 0.554296875 0.564453125 0.570703125 0.580078125 0.587109375 0.590234375 0.594921875 0.595703125 0.597265625 0.604296875 0.611328125 0.639453125 0.672265625 0.707421875 0.756640625 0.783984375 0.792578125 0.794921875 0.794921875 0.794921875 0.793359375 0.793359375 0.792578125 0.796484375 0.805859375 0.830859375 0.843359375 0.854296875 0.856640625 0.856640625 0.855078125 0.846484375 0.833984375 0.795703125 0.751953125 0.680078125 0.619921875 0.606640625 0.582421875 0.571484375 0.550390625 0.512890625 0.483984375 0.451953125 0.446484375 0.455859375 0.505859375 0.599609375 0.751953125 0.862109375 0.901953125 0.929296875 0.937109375 0.940234375 0.940234375 0.940234375 0.940234375 0.940234375 0.940234375 0.940234375 0.940234375 0.939453125 0.938671875 0.933203125 0.908203125 0.841015625 0.745703125 0.576171875 0.474609375 0.386328125 0.358984375 0.343359375 0.323046875 0.296484375 0.278515625 0.258203125 0.245703125 0.229296875 0.213671875 0.208984375 0.197265625 0.186328125 0.178515625 0.166796875 0.158203125 0.139453125 0.124609375 0.123046875,0.8083333333333333 0.803125 0.796875 0.784375 0.7666666666666666 0.753125 0.7291666666666667 0.7125 0.6895833333333333 0.6739583333333333 0.6572916666666666 0.6333333333333333 0.6083333333333334 0.5927083333333334 0.5677083333333333 0.553125 0.5322916666666666 0.5166666666666666 0.5041666666666667 0.484375 0.4677083333333333 0.45625 0.4375 0.4229166666666667 0.3916666666666667 0.36458333333333337 0.3427083333333333 0.31666666666666665 0.30000000000000004 0.2927083333333333 0.29166666666666663 0.28645833333333337 0.278125 0.2677083333333333 0.265625 0.25625 0.2416666666666667 0.2302083333333333 0.2125 0.203125 0.19166666666666665 0.18854166666666672 0.18645833333333328 0.17708333333333334 0.16666666666666666 0.15937500000000004 0.14166666666666672 0.1333333333333333 0.13020833333333334 0.12916666666666665 0.12708333333333333 0.12187499999999996 0.1177083333333333 0.11354166666666665 0.11250000000000004 0.11250000000000004 0.11250000000000004 0.11250000000000004 0.11250000000000004 0.11250000000000004 0.11250000000000004 0.11250000000000004 0.11250000000000004 0.11354166666666665 0.11979166666666664 0.125 0.12812500000000004 0.12812500000000004 0.12916666666666665 0.13020833333333334 0.1333333333333333 0.1333333333333333 0.140625 0.14270833333333333 0.14687499999999998 0.1479166666666667 0.1489583333333333 0.1489583333333333 0.1489583333333333 0.1489583333333333 0.1489583333333333 0.1489583333333333 0.1489583333333333 0.1479166666666667 0.14479166666666665 0.14166666666666672 0.13958333333333328 0.13958333333333328 0.13958333333333328 0.13958333333333328 0.13958333333333328 0.13958333333333328 0.13958333333333328 0.13958333333333328 0.13958333333333328 0.13958333333333328 0.13958333333333328 0.13958333333333328 0.13958333333333328 0.13958333333333328 0.13958333333333328,236.10000000000585 256.1000000000058 276.1000000000058 296.10000000000576 316.1000000000057 336.1000000000057 356.1000000000057 376.1000000000057 396.10000000000565 416.10000000000565 436.10000000000565 456.10000000000565 476.1000000000055 496.1000000000055 516.1000000000055 536.1000000000054 556.1000000000054 576.1000000000054 596.1000000000054 616.1000000000053 636.1000000000053 656.1000000000053 676.1000000000053 696.1000000000051 716.1000000000051 736.1000000000051 756.1000000000051 776.100000000005 796.100000000005 816.100000000005 836.1000000000049 856.1000000000049 876.1000000000049 896.1000000000049 916.1000000000047 936.1000000000047 956.1000000000047 976.1000000000047 996.1000000000047 1016.1000000000047 1036.1000000000047 1056.1000000000047 1076.1000000000047 1096.1000000000047 1116.1000000000047 1136.1000000000047 1156.1000000000045 1176.1000000000045 1196.1000000000045 1216.1000000000045 1236.1000000000045 1256.1000000000045 1276.1000000000045 1296.1000000000042 1316.1000000000042 1336.1000000000042 1356.1000000000042 1376.1000000000042 1396.1000000000042 1416.1000000000042 1436.100000000004 1456.100000000004 1476.100000000004 1496.100000000004 1516.100000000004 1536.100000000004 1556.100000000004 1576.100000000004 1596.100000000004 1616.1000000000038 1636.1000000000038 1656.1000000000038 1676.1000000000038 1696.1000000000038 1716.1000000000038 1736.1000000000038 1756.1000000000033 1776.1000000000033 1796.1000000000033 1816.1000000000033 1836.1000000000033 1856.1000000000033 1876.1000000000033 1896.1000000000033 1916.1000000000033 1936.1000000000033 1956.1000000000033 1976.1000000000033 1996.1000000000033 2016.1000000000033 2036.1000000000033 2056.1000000000035 2076.100000000003 2096.100000000003 2116.100000000003 2136.100000000003 2156.100000000003 2176.100000000003 2196.100000000003 2216.100000000003 2236.100000000003
cb_08,6.0,enc_trial,stim,response,STEM students,1443.0000000357684,enc_trial,1.0,6.0,s_s_19_1,student_stem,fold-c,circuit board,8.0,unique,far,paired,s_s_19_1.jpg,stem,student-b1,STEM students,Fine Arts students,sub-12,1.0,1.0,1.0,1.0,0.535546875 0.544921875 0.554296875 0.555078125 0.553515625 0.551953125 0.548828125 0.551171875 0.557421875 0.566796875 0.582421875 0.591796875 0.598828125 0.599609375 0.589453125 0.576171875 0.571484375 0.571484375 0.579296875 0.605859375 0.642578125 0.658203125 0.666796875 0.668359375 0.666796875 0.666015625 0.667578125 0.673828125 0.701953125 0.723046875 0.751171875 0.766796875 0.773046875 0.779296875 0.781640625 0.789453125 0.801171875 0.812109375 0.830078125 0.841015625 0.845703125 0.845703125 0.845703125 0.839453125 0.830078125 0.813671875 0.754296875 0.666796875 0.483203125 0.266796875 0.205078125 0.066796875 0.011328125 -0.004296875 -0.010546875 -0.016796875 -0.030078125 -0.045703125 -0.048046875 -0.048828125 -0.048828125 -0.047265625 -0.040234375 -0.019921875 0.026953125 0.063671875 0.075390625 0.076953125 0.076953125 0.078515625,0.8041666666666667 0.7916666666666666 0.7666666666666666 0.7552083333333334 0.734375 0.725 0.7135416666666667 0.6979166666666667 0.6833333333333333 0.6645833333333333 0.6260416666666666 0.6052083333333333 0.5739583333333333 0.5572916666666667 0.5166666666666666 0.48125 0.4614583333333333 0.4458333333333333 0.428125 0.3875 0.34895833333333337 0.328125 0.3083333333333333 0.30000000000000004 0.29166666666666663 0.2875 0.275 0.2645833333333333 0.23854166666666665 0.22291666666666665 0.20520833333333333 0.19166666666666665 0.18541666666666667 0.17812499999999998 0.17500000000000004 0.16770833333333335 0.16145833333333334 0.15625 0.14479166666666665 0.13854166666666667 0.13437500000000002 0.13437500000000002 0.1333333333333333 0.12916666666666665 0.12291666666666667 0.1166666666666667 0.11354166666666665 0.11354166666666665 0.11354166666666665 0.11354166666666665 0.11354166666666665 0.11354166666666665 0.11354166666666665 0.11250000000000004 0.109375 0.109375 0.109375 0.11250000000000004 0.11562499999999998 0.1166666666666667 0.11875000000000002 0.12291666666666667 0.12812500000000004 0.1333333333333333 0.13749999999999996 0.13749999999999996 0.13749999999999996 0.13749999999999996 0.13749999999999996 0.13749999999999996,0.0 20.0 40.0 60.0 80.0 100.0 120.0 140.0 160.0 180.0 200.0 220.0 240.0 260.0 280.0 300.0 320.0 340.0 360.0 380.0 400.0 420.0 440.0 460.0 480.0 500.0 520.0 540.0 560.0 580.0 600.0 620.0 640.0 660.0 680.0 700.0 720.0 740.0 760.0 780.0 800.0 820.0 840.0 860.0 880.0 900.0 920.0 940.0 960.0 980.0 1000.0 1020.0 1040.0 1060.0 1080.0 1100.0 1120.0 1140.0 1160.0 1180.0 1200.0 1220.0 1240.0 1260.0 1280.0 1300.0 1320.0 1340.0 1360.0 1380.0
cb_08,7.0,enc_trial,stim,response,STEM students,1008.1000000476781,enc_trial,1.0,7.0,s_s_11_2,student_stem,fold-d,scientific scale,8.0,unique,close,paired,s_s_11_2.jpg,stem,student-b1,STEM students,Fine Arts students,sub-12,1.0,1.0,1.0,1.0,0.508203125 0.512109375 0.518359375 0.526953125 0.532421875 0.534765625 0.536328125 0.539453125 0.544140625 0.551953125 0.558984375 0.565234375 0.566015625 0.562890625 0.551953125 0.545703125 0.539453125 0.537109375 0.537890625 0.543359375 0.549609375 0.558203125 0.562109375 0.562109375 0.554296875 0.533203125 0.523046875 0.481640625 0.445703125 0.378515625 0.328515625 0.304296875 0.276953125 0.264453125 0.257421875 0.252734375 0.251953125 0.251953125 0.249609375 0.245703125 0.233203125 0.222265625 0.210546875 0.177734375 0.159765625 0.137890625 0.131640625,0.8125 0.8072916666666666 0.7979166666666666 0.7802083333333334 0.7625 0.7541666666666667 0.7416666666666667 0.7333333333333334 0.7197916666666666 0.70625 0.6927083333333333 0.6770833333333333 0.65625 0.6385416666666667 0.6104166666666666 0.5958333333333333 0.578125 0.571875 0.5645833333333333 0.54375 0.5260416666666667 0.496875 0.4697916666666667 0.4520833333333333 0.42604166666666665 0.39375 0.3833333333333333 0.3416666666666667 0.3125 0.259375 0.22187500000000004 0.20208333333333328 0.18229166666666666 0.16874999999999996 0.15833333333333333 0.15000000000000002 0.14687499999999998 0.14270833333333333 0.13437500000000002 0.12708333333333333 0.11458333333333336 0.109375 0.10833333333333328 0.11562499999999998 0.11875000000000002 0.12604166666666672 0.12812500000000004,27.69999999999709 47.69999999999709 67.69999999999709 87.6999999999971 107.69999999999708 127.69999999999708 147.6999999999971 167.6999999999971 187.6999999999971 207.6999999999971 227.6999999999971 247.6999999999971 267.6999999999971 287.69999999999715 307.69999999999715 327.69999999999715 347.6999999999971 367.6999999999971 387.6999999999971 407.6999999999971 427.6999999999971 447.6999999999971 467.6999999999971 487.6999999999971 507.6999999999971 527.6999999999971 547.6999999999971 567.6999999999971 587.6999999999971 607.6999999999971 627.6999999999971 647.6999999999971 667.6999999999971 687.6999999999971 707.6999999999971 727.6999999999971 747.6999999999971 767.6999999999971 787.6999999999971 807.6999999999971 827.6999999999971 847.6999999999971 867.6999999999971 887.6999999999971 907.6999999999972 927.6999999999972 947.6999999999972
cb_08,8.0,enc_trial,stim,response,STEM students,1694.4000000476804,enc_trial,1.0,8.0,s_sh_19_2,student_shared,fold-a,portable plastic drawer,8.0,competing,close,paired,s_sh_19_2.jpg,,student-b1,STEM students,Fine Arts students,sub-12,1.0,1.0,0.0,0.0,0.544921875 0.542578125 0.542578125 0.544140625 0.547265625 0.560546875 0.573046875 0.576953125 0.578515625 0.576953125 0.570703125 0.558203125 0.545703125 0.535546875 0.533984375 0.538671875 0.554296875 0.566796875 0.574609375 0.582421875 0.581640625 0.576171875 0.567578125 0.561328125 0.555078125 0.555078125 0.564453125 0.601171875 0.631640625 0.681640625 0.736328125 0.766796875 0.801953125 0.819921875 0.832421875 0.842578125 0.844921875 0.845703125 0.839453125 0.835546875 0.836328125 0.839453125 0.844921875 0.849609375 0.851171875 0.851171875 0.848828125 0.847265625 0.846484375 0.844921875 0.842578125 0.830859375 0.809765625 0.740234375 0.662890625 0.650390625 0.652734375 0.679296875 0.717578125 0.722265625 0.721484375 0.697265625 0.637109375 0.453515625 0.248046875 0.149609375 0.084765625 0.074609375 0.073046875 0.070703125 0.068359375 0.061328125 0.055859375 0.053515625 0.049609375 0.048046875 0.047265625 0.047265625 0.047265625 0.051953125 0.058203125 0.064453125 0.073046875 0.076171875 0.076953125,0.771875 0.765625 0.7614583333333333 0.753125 0.7458333333333333 0.7302083333333333 0.7166666666666667 0.7114583333333333 0.70625 0.696875 0.6854166666666667 0.665625 0.6520833333333333 0.6364583333333333 0.621875 0.6020833333333333 0.565625 0.5395833333333333 0.515625 0.4864583333333333 0.465625 0.43125 0.3916666666666667 0.3625 0.31875 0.2875 0.2510416666666667 0.1875 0.15416666666666667 0.11354166666666665 0.08333333333333337 0.06666666666666665 0.054166666666666696 0.05000000000000005 0.04791666666666672 0.04583333333333328 0.04583333333333328 0.05000000000000005 0.060416666666666674 0.0697916666666667 0.078125 0.0864583333333333 0.09166666666666667 0.09375 0.09479166666666672 0.09999999999999998 0.10416666666666664 0.10729166666666667 0.10833333333333328 0.109375 0.109375 0.109375 0.109375 0.109375 0.10729166666666667 0.10520833333333336 0.10312500000000002 0.10312500000000002 0.09895833333333336 0.09479166666666672 0.08958333333333335 0.08437499999999998 0.08437499999999998 0.08437499999999998 0.08437499999999998 0.08437499999999998 0.08437499999999998 0.08437499999999998 0.08437499999999998 0.08333333333333337 0.08333333333333337 0.08854166666666663 0.09166666666666667 0.09479166666666672 0.09999999999999998 0.10312500000000002 0.10520833333333336 0.11041666666666672 0.11354166666666665 0.1177083333333333 0.12187499999999996 0.12291666666666667 0.125 0.125 0.125,0.0 20.0 40.0 60.0 80.0 100.0 120.0 140.0 160.0 180.0 200.0 220.0 240.0 260.0 280.0 300.0 320.0 340.0 360.0 380.0 400.0 420.0 440.0 460.0 480.0 500.0 520.0 540.0 560.0 580.0 600.0 620.0 640.0 660.0 680.0 700.0 720.0 740.0 760.0 780.0 800.0 820.0 840.0 860.0 880.0 900.0 920.0 940.0 960.0 980.0 1000.0 1020.0 1040.0 1060.0 1080.0 1100.0 1120.0 1140.0 1160.0 1180.0 1200.0 1220.0 1240.0 1260.0 1280.0 1300.0 1320.0 1340.0 1360.0 1380.0 1400.0 1420.0 1440.0 1460.0 1480.0 1500.0 1520.0 1540.0 1560.0 1580.0 1600.0 1620.0 1640.0 1660.0 1680.0
cb_08,9.0,enc_trial,stim,response,STEM students,1312.7000000000114,enc_trial,1.0,9.0,s_sh_07_1,student_shared,fold-a,ruler,8.0,competing,close,paired,s_sh_07_1.jpg,,student-b1,STEM students,Fine Arts students,sub-12,0.0,0.0,1.0,1.0,0.478515625 0.478515625 0.481640625 0.486328125 0.498828125 0.506640625 0.523046875 0.533984375 0.544140625 0.545703125 0.542578125 0.533203125 0.520703125 0.514453125 0.512109375 0.514453125 0.529296875 0.541015625 0.549609375 0.551953125 0.547265625 0.523828125 0.476171875 0.440234375 0.414453125 0.412890625 0.416796875 0.434765625 0.448046875 0.458984375 0.459765625 0.454296875 0.432421875 0.410546875 0.377734375 0.332421875 0.319140625 0.314453125 0.314453125 0.311328125 0.299609375 0.280078125 0.253515625 0.170703125 0.104296875 0.051953125 0.042578125 0.043359375 0.054296875 0.066015625 0.076953125 0.091796875 0.096484375 0.097265625 0.097265625 0.097265625 0.096484375 0.095703125,0.784375 0.784375 0.7760416666666666 0.75625 0.73125 0.7177083333333334 0.7 0.6895833333333333 0.6677083333333333 0.6541666666666667 0.6364583333333333 0.6166666666666667 0.6010416666666667 0.5947916666666666 0.5864583333333333 0.571875 0.5416666666666667 0.521875 0.5052083333333333 0.4802083333333334 0.4520833333333333 0.4072916666666667 0.35625 0.3291666666666667 0.3041666666666667 0.2958333333333333 0.2802083333333333 0.2510416666666667 0.2302083333333333 0.20416666666666672 0.18125 0.1645833333333333 0.14166666666666672 0.125 0.11041666666666672 0.09791666666666664 0.09166666666666667 0.08958333333333335 0.08958333333333335 0.08750000000000002 0.08333333333333337 0.078125 0.078125 0.08854166666666663 0.10520833333333336 0.12083333333333335 0.125 0.12812500000000004 0.13749999999999996 0.14270833333333333 0.14687499999999998 0.15104166666666666 0.15312499999999996 0.15312499999999996 0.15312499999999996 0.15312499999999996 0.15312499999999996 0.15312499999999996,76.40000000000873 96.40000000000872 116.40000000000872 136.4000000000087 156.4000000000087 176.40000000000873 196.40000000000873 216.40000000000873 236.40000000000873 256.40000000000873 276.40000000000873 296.40000000000873 316.40000000000873 336.40000000000873 356.4000000000088 376.4000000000088 396.4000000000088 416.4000000000088 436.4000000000088 456.4000000000088 476.4000000000088 496.4000000000088 516.4000000000087 536.4000000000087 556.4000000000087 576.4000000000087 596.4000000000087 616.4000000000087 636.4000000000087 656.4000000000087 676.4000000000087 696.4000000000087 716.4000000000087 736.4000000000087 756.4000000000087 776.4000000000087 796.4000000000087 816.4000000000087 836.4000000000087 856.4000000000087 876.4000000000087 896.4000000000087 916.4000000000087 936.4000000000087 956.4000000000087 976.4000000000087 996.4000000000087 1016.4000000000087 1036.4000000000087 1056.4000000000087 1076.4000000000087 1096.4000000000087 1116.4000000000087 1136.4000000000087 1156.4000000000087 1176.4000000000087 1196.4000000000087 1216.4000000000087
cb_08,10.0,enc_trial,stim,response,Fine Arts students,1443.3000000119214,enc_trial,1.0,10.0,s_a_14_1,student_art,fold-c,guitar pick,8.0,unique,far,paired,s_a_14_1.jpg,art,student-b1,STEM students,Fine Arts students,sub-12,1.0,1.0,1.0,1.0,0.551953125 0.551953125 0.550390625 0.550390625 0.555859375 0.561328125 0.568359375 0.570703125 0.570703125 0.569140625 0.561328125 0.555859375 0.548046875 0.541796875 0.537109375 0.538671875 0.544140625 0.551953125 0.560546875 0.570703125 0.571484375 0.566015625 0.537109375 0.496484375 0.463671875 0.438671875 0.436328125 0.433984375 0.444140625 0.465234375 0.508203125 0.535546875 0.558203125 0.570703125 0.573046875 0.573828125 0.573828125 0.577734375 0.612890625 0.671484375 0.762890625 0.842578125 0.858984375 0.891015625 0.898046875 0.898828125 0.898828125 0.898828125 0.898828125 0.898828125 0.899609375 0.899609375 0.899609375 0.899609375 0.899609375 0.899609375 0.889453125 0.852734375 0.820703125 0.790234375 0.773046875 0.773046875 0.773046875 0.773046875 0.773046875 0.795703125 0.816796875 0.833203125 0.838671875 0.840234375 0.840234375 0.841015625,0.7197916666666666 0.703125 0.6822916666666667 0.6666666666666667 0.64375 0.6291666666666667 0.6083333333333334 0.5989583333333333 0.5916666666666667 0.5791666666666666 0.5635416666666666 0.5520833333333333 0.5375 0.525 0.5010416666666666 0.475 0.453125 0.43125 0.4166666666666666 0.396875 0.38020833333333337 0.36354166666666665 0.33333333333333337 0.309375 0.30000000000000004 0.2895833333333333 0.2875 0.2833333333333333 0.2729166666666667 0.2583333333333333 0.2354166666666667 0.22083333333333333 0.20520833333333333 0.1927083333333333 0.18958333333333333 0.18645833333333328 0.18645833333333328 0.18333333333333326 0.17812499999999998 0.17812499999999998 0.17812499999999998 0.17812499999999998 0.17812499999999998 0.17812499999999998 0.17812499999999998 0.17812499999999998 0.17812499999999998 0.17812499999999998 0.17812499999999998 0.17812499999999998 0.17812499999999998 0.17812499999999998 0.17812499999999998 0.17812499999999998 0.17812499999999998 0.17812499999999998 0.17500000000000004 0.17083333333333328 0.17083333333333328 0.16874999999999996 0.16666666666666666 0.16666666666666666 0.16666666666666666 0.16666666666666666 0.16666666666666666 0.16041666666666665 0.15416666666666667 0.15000000000000002 0.1489583333333333 0.1489583333333333 0.1489583333333333 0.1489583333333333,0.0 20.0 40.0 60.0 80.0 100.0 120.0 140.0 160.0 180.0 200.0 220.0 240.0 260.0 280.0 300.0 320.0 340.0 360.0 380.0 400.0 420.0 440.0 460.0 480.0 500.0 520.0 540.0 560.0 580.0 600.0 620.0 640.0 660.0 680.0 700.0 720.0 740.0 760.0 780.0 800.0 820.0 840.0 860.0 880.0 900.0 920.0 940.0 960.0 980.0 1000.0 1020.0 1040.0 1060.0 1080.0 1100.0 1120.0 1140.0 1160.0 1180.0 1200.0 1220.0 1240.0 1260.0 1280.0 1300.0 1320.0 1340.0 1360.0 1380.0 1400.0 1420.0
cb_08,11.0,enc_trial,stim,response,STEM students,1384.5,enc_trial,1.0,11.0,s_s_20_1,student_stem,fold-d,dna model,8.0,unique,close,paired,s_s_20_1.jpg,stem,student-b1,STEM students,Fine Arts students,sub-12,1.0,1.0,1.0,1.0,0.501171875 0.499609375 0.498046875 0.494921875 0.494140625 0.487109375 0.481640625 0.480859375 0.485546875 0.486328125 0.486328125 0.486328125 0.486328125 0.486328125 0.486328125 0.486328125 0.491015625 0.512109375 0.556640625 0.626953125 0.651953125 0.660546875 0.651171875 0.634765625 0.604296875 0.583203125 0.568359375 0.564453125 0.564453125 0.580859375 0.620703125 0.652734375 0.687109375 0.693359375 0.691796875 0.673828125 0.652734375 0.576953125 0.469140625 0.405859375 0.325390625 0.287890625 0.252734375 0.208984375 0.177734375 0.133984375 0.103515625 0.088671875 0.064453125 0.044921875 0.031640625 0.026953125 0.026953125 0.026953125 0.026953125 0.026953125 0.026953125 0.027734375 0.030078125 0.032421875 0.033203125 0.041796875 0.047265625 0.055859375 0.062890625 0.069140625 0.076171875 0.076953125,0.8041666666666667 0.8 0.790625 0.775 0.7604166666666666 0.7260416666666667 0.6833333333333333 0.6583333333333333 0.6416666666666666 0.6416666666666666 0.6416666666666666 0.6416666666666666 0.6416666666666666 0.6416666666666666 0.6416666666666666 0.6416666666666666 0.640625 0.640625 0.63125 0.60625 0.5885416666666667 0.55 0.5052083333333333 0.4854166666666667 0.4645833333333334 0.4552083333333333 0.4510416666666667 0.4479166666666666 0.4479166666666666 0.4364583333333333 0.4166666666666666 0.3927083333333333 0.35416666666666663 0.33333333333333337 0.31562500000000004 0.290625 0.2739583333333333 0.2458333333333333 0.21458333333333326 0.19895833333333326 0.17500000000000004 0.15937500000000004 0.15104166666666666 0.140625 0.13541666666666666 0.12916666666666665 0.12916666666666665 0.12916666666666665 0.12916666666666665 0.13124999999999998 0.1333333333333333 0.13645833333333335 0.13645833333333335 0.13854166666666667 0.13854166666666667 0.13854166666666667 0.13854166666666667 0.13854166666666667 0.14166666666666672 0.14270833333333333 0.14375000000000004 0.14375000000000004 0.14375000000000004 0.14375000000000004 0.14375000000000004 0.14375000000000004 0.14375000000000004 0.14375000000000004,27.700000000011638 47.70000000001164 67.70000000001164 87.70000000001166 107.70000000001166 127.70000000001166 147.7000000000117 167.7000000000117 187.70000000001167 207.70000000001167 227.70000000001167 247.70000000001167 267.7000000000117 287.7000000000117 307.7000000000117 327.7000000000117 347.7000000000117 367.7000000000117 387.7000000000117 407.7000000000117 427.7000000000117 447.7000000000117 467.7000000000117 487.7000000000117 507.70000000001176 527.7000000000119 547.7000000000119 567.7000000000118 587.7000000000118 607.7000000000118 627.7000000000118 647.7000000000118 667.7000000000118 687.7000000000118 707.7000000000118 727.7000000000118 747.7000000000118 767.7000000000118 787.7000000000118 807.7000000000118 827.7000000000118 847.7000000000118 867.7000000000118 887.7000000000118 907.7000000000118 927.7000000000118 947.7000000000118 967.7000000000118 987.7000000000121 1007.7000000000121 1027.700000000012 1047.700000000012 1067.700000000012 1087.700000000012 1107.700000000012 1127.700000000012 1147.700000000012 1167.700000000012 1187.700000000012 1207.700000000012 1227.700000000012 1247.700000000012 1267.700000000012 1287.700000000012 1307.700000000012 1327.700000000012 1347.700000000012 1367.700000000012
cb_08,12.0,enc_trial,stim,response,STEM students,1054.2000000238477,enc_trial,1.0,12.0,s_sh_07_2,student_shared,fold-a,ruler,8.0,competing,close,paired,s_sh_07_2.jpg,,student-b1,STEM students,Fine Arts students,sub-12,0.0,0.0,1.0,1.0,0.558984375 0.558984375 0.564453125 0.578515625 0.582421875 0.582421875 0.576953125 0.574609375 0.572265625 0.572265625 0.573046875 0.571484375 0.563671875 0.545703125 0.532421875 0.514453125 0.508203125 0.507421875 0.501953125 0.477734375 0.450390625 0.401171875 0.373046875 0.339453125 0.335546875 0.335546875 0.373828125 0.476953125 0.524609375 0.544140625 0.543359375 0.518359375 0.458203125 0.394140625 0.317578125 0.220703125 0.200390625 0.195703125 0.194921875 0.194921875 0.194921875 0.194140625 0.194140625 0.194140625 0.194140625 0.192578125 0.187890625 0.177734375 0.158984375 0.141796875 0.126171875 0.119140625,0.6760416666666667 0.6645833333333333 0.6385416666666667 0.5833333333333333 0.55625 0.5302083333333334 0.5041666666666667 0.4885416666666666 0.4708333333333333 0.4666666666666667 0.45 0.42604166666666665 0.4 0.359375 0.3354166666666667 0.30104166666666665 0.28437500000000004 0.278125 0.25625 0.22916666666666666 0.21354166666666666 0.19895833333333326 0.19166666666666665 0.18958333333333333 0.18854166666666672 0.18854166666666672 0.18854166666666672 0.18541666666666667 0.17812499999999998 0.16874999999999996 0.16666666666666666 0.16666666666666666 0.16666666666666666 0.16666666666666666 0.16666666666666666 0.16666666666666666 0.16666666666666666 0.16666666666666666 0.16666666666666666 0.16666666666666666 0.16666666666666666 0.16666666666666666 0.16666666666666666 0.16666666666666666 0.16666666666666666 0.1635416666666667 0.16041666666666665 0.15520833333333328 0.15000000000000002 0.14479166666666665 0.14166666666666672 0.13958333333333328,0.0 20.0 40.0 60.0 80.0 100.0 120.0 140.0 160.0 180.0 200.0 220.0 240.0 260.0 280.0 300.0 320.0 340.0 360.0 380.0 400.0 420.0 440.0 460.0 480.0 500.0 520.0 540.0 560.0 580.0 600.0 620.0 640.0 660.0 680.0 700.0 720.0 740.0 760.0 780.0 800.0 820.0 840.0 860.0 880.0 900.0 920.0 940.0 960.0 980.0 1000.0 1020.0
cb_08,13.0,enc_trial,stim,response,Fine Arts students,1761.0000000357684,enc_trial,1.0,13.0,s_sh_09_1,student_shared,fold-c,paper clips,8.0,competing,far,paired,s_sh_09_1.jpg,,student-b1,STEM students,Fine Arts students,sub-12,0.0,0.0,0.0,0.0,0.508984375 0.510546875 0.516015625 0.521484375 0.523046875 0.523828125 0.523046875 0.520703125 0.522265625 0.526171875 0.544140625 0.568359375 0.577734375 0.587890625 0.585546875 0.572265625 0.555078125 0.551171875 0.546484375 0.553515625 0.562109375 0.571484375 0.573828125 0.566015625 0.544921875 0.533984375 0.516015625 0.512890625 0.512890625 0.508984375 0.495703125 0.454296875 0.376953125 0.317578125 0.265234375 0.223046875 0.187109375 0.176953125 0.176953125 0.178515625 0.192578125 0.251953125 0.322265625 0.404296875 0.520703125 0.596484375 0.621484375 0.633984375 0.634765625 0.634765625 0.637109375 0.645703125 0.676953125 0.708984375 0.717578125 0.718359375 0.718359375 0.728515625 0.760546875 0.771484375 0.795703125 0.803515625 0.803515625 0.807421875 0.808203125 0.808203125 0.812109375 0.817578125 0.833203125 0.845703125 0.848046875 0.848046875 0.842578125 0.827734375 0.823828125 0.823828125 0.823828125 0.828515625 0.834765625 0.844140625 0.848828125 0.852734375 0.855078125 0.857421875,0.7989583333333333 0.7979166666666666 0.790625 0.7791666666666667 0.76875 0.75 0.7364583333333333 0.715625 0.6916666666666667 0.6833333333333333 0.646875 0.6072916666666667 0.584375 0.5552083333333333 0.5375 0.5020833333333333 0.4697916666666667 0.459375 0.4385416666666667 0.4135416666666667 0.3989583333333333 0.37916666666666665 0.36875 0.340625 0.30625 0.296875 0.2770833333333333 0.26979166666666665 0.2666666666666667 0.25520833333333337 0.2395833333333333 0.2083333333333333 0.17500000000000004 0.1645833333333333 0.16249999999999998 0.16249999999999998 0.16249999999999998 0.16249999999999998 0.16249999999999998 0.16249999999999998 0.16666666666666666 0.16979166666666667 0.16979166666666667 0.16979166666666667 0.16979166666666667 0.16979166666666667 0.16979166666666667 0.16979166666666667 0.16979166666666667 0.16979166666666667 0.16979166666666667 0.16979166666666667 0.17708333333333334 0.18645833333333328 0.19062500000000004 0.19062500000000004 0.19062500000000004 0.19166666666666665 0.19166666666666665 0.19166666666666665 0.19166666666666665 0.19166666666666665 0.19166666666666665 0.19166666666666665 0.19166666666666665 0.19166666666666665 0.19166666666666665 0.19062500000000004 0.18541666666666667 0.18229166666666666 0.18125 0.17604166666666665 0.16979166666666667 0.15937500000000004 0.15729166666666672 0.15729166666666672 0.15729166666666672 0.15729166666666672 0.15729166666666672 0.15729166666666672 0.15729166666666672 0.15729166666666672 0.15729166666666672 0.15520833333333328,90.30000000001743 110.30000000001743 130.30000000001743 150.30000000001743 170.30000000001743 190.30000000001743 210.30000000001743 230.30000000001743 250.30000000001743 270.3000000000174 290.3000000000174 310.3000000000174 330.3000000000174 350.30000000001746 370.30000000001746 390.30000000001746 410.30000000001746 430.30000000001746 450.30000000001746 470.30000000001746 490.30000000001746 510.30000000001746 530.3000000000175 550.3000000000175 570.3000000000175 590.3000000000175 610.3000000000175 630.3000000000175 650.3000000000175 670.3000000000175 690.3000000000176 710.3000000000176 730.3000000000176 750.3000000000176 770.3000000000176 790.3000000000176 810.3000000000176 830.3000000000176 850.3000000000176 870.3000000000176 890.3000000000176 910.3000000000177 930.3000000000177 950.3000000000177 970.3000000000177 990.3000000000177 1010.3000000000177 1030.3000000000177 1050.3000000000177 1070.3000000000177 1090.3000000000177 1110.3000000000177 1130.3000000000175 1150.3000000000175 1170.3000000000175 1190.3000000000175 1210.3000000000175 1230.3000000000175 1250.3000000000175 1270.3000000000175 1290.3000000000175 1310.3000000000175 1330.3000000000175 1350.3000000000175 1370.3000000000175 1390.3000000000175 1410.3000000000175 1430.3000000000175 1450.3000000000175 1470.3000000000175 1490.3000000000175 1510.3000000000175 1530.3000000000175 1550.3000000000175 1570.3000000000175 1590.3000000000175 1610.3000000000175 1630.3000000000175 1650.3000000000175 1670.3000000000175 1690.3000000000175 1710.3000000000175 1730.3000000000175 1750.3000000000175
cb_08,14.0,enc_trial,stim,response,Fine Arts students,1288.0,enc_trial,1.0,14.0,s_a_06_1,student_art,fold-d,pastels,8.0,unique,close,paired,s_a_06_1.jpg,art,student-b1,STEM students,Fine Arts students,sub-12,1.0,1.0,1.0,1.0,0.552734375 0.551953125 0.548046875 0.545703125 0.545703125 0.545703125 0.546484375 0.548828125 0.551171875 0.551171875 0.551171875 0.545703125 0.533203125 0.500390625 0.471484375 0.436328125 0.426953125 0.426953125 0.430859375 0.439453125 0.454296875 0.466796875 0.477734375 0.498828125 0.506640625 0.507421875 0.507421875 0.507421875 0.507421875 0.507421875 0.507421875 0.507421875 0.510546875 0.529296875 0.558203125 0.610546875 0.658984375 0.670703125 0.671484375 0.658984375 0.639453125 0.606640625 0.583203125 0.566796875 0.562890625 0.564453125 0.595703125 0.675390625 0.727734375 0.778515625 0.794140625 0.796484375 0.797265625 0.798046875 0.801171875 0.808203125 0.824609375 0.848828125 0.862890625 0.866015625 0.873046875 0.883984375 0.890234375 0.894921875 0.895703125,0.6958333333333333 0.6864583333333334 0.6645833333333333 0.6489583333333333 0.6427083333333333 0.6333333333333333 0.625 0.6166666666666667 0.6104166666666666 0.6104166666666666 0.6052083333333333 0.590625 0.575 0.5489583333333333 0.5302083333333334 0.4979166666666667 0.4666666666666667 0.4583333333333334 0.42604166666666665 0.403125 0.37083333333333335 0.33854166666666663 0.31666666666666665 0.29166666666666663 0.2833333333333333 0.2833333333333333 0.2833333333333333 0.2833333333333333 0.2833333333333333 0.2833333333333333 0.2833333333333333 0.2833333333333333 0.2822916666666667 0.2822916666666667 0.2822916666666667 0.2729166666666667 0.2572916666666667 0.2364583333333333 0.21666666666666667 0.1875 0.16874999999999996 0.15000000000000002 0.14583333333333334 0.14687499999999998 0.15000000000000002 0.15312499999999996 0.15729166666666672 0.14166666666666672 0.125 0.09375 0.08437499999999998 0.08125000000000004 0.08125000000000004 0.08229166666666665 0.0864583333333333 0.09791666666666664 0.10520833333333336 0.11354166666666665 0.1166666666666667 0.1166666666666667 0.11875000000000002 0.12291666666666667 0.12395833333333328 0.125 0.125,0.0 20.0 40.0 60.0 80.0 100.0 120.0 140.0 160.0 180.0 200.0 220.0 240.0 260.0 280.0 300.0 320.0 340.0 360.0 380.0 400.0 420.0 440.0 460.0 480.0 500.0 520.0 540.0 560.0 580.0 600.0 620.0 640.0 660.0 680.0 700.0 720.0 740.0 760.0 780.0 800.0 820.0 840.0 860.0 880.0 900.0 920.0 940.0 960.0 980.0 1000.0 1020.0 1040.0 1060.0 1080.0 1100.0 1120.0 1140.0 1160.0 1180.0 1200.0 1220.0 1240.0 1260.0 1280.0
cb_08,15.0,enc_trial,stim,response,STEM students,942.3999999999942,enc_trial,1.0,15.0,s_s_20_2,student_stem,fold-d,dna model,8.0,unique,close,paired,s_s_20_2.jpg,stem,student-b1,STEM students,Fine Arts students,sub-12,1.0,1.0,1.0,1.0,0.539453125 0.544140625 0.560546875 0.570703125 0.574609375 0.576171875 0.576171875 0.566015625 0.551953125 0.545703125 0.538671875 0.537890625 0.542578125 0.559765625 0.571484375 0.580859375 0.580078125 0.576953125 0.560546875 0.554296875 0.558984375 0.586328125 0.611328125 0.630078125 0.631640625 0.628515625 0.601953125 0.548828125 0.491796875 0.373828125 0.298046875 0.253515625 0.230859375 0.229296875 0.229296875 0.223046875 0.213671875 0.195703125 0.184765625 0.177734375 0.175390625 0.173046875 0.168359375 0.158203125 0.147265625 0.139453125 0.138671875,0.721875 0.7114583333333333 0.6885416666666666 0.678125 0.6729166666666666 0.6604166666666667 0.646875 0.6197916666666667 0.5979166666666667 0.59375 0.5864583333333333 0.578125 0.5604166666666667 0.521875 0.4895833333333334 0.44375 0.40208333333333335 0.3895833333333333 0.34687500000000004 0.32291666666666663 0.3041666666666667 0.275 0.25625 0.2364583333333333 0.228125 0.2239583333333333 0.2083333333333333 0.19062500000000004 0.1802083333333333 0.16979166666666667 0.15833333333333333 0.14687499999999998 0.140625 0.140625 0.13958333333333328 0.13854166666666667 0.13854166666666667 0.13854166666666667 0.13854166666666667 0.13854166666666667 0.13854166666666667 0.13854166666666667 0.13854166666666667 0.13854166666666667 0.13854166666666667 0.13854166666666667 0.13854166666666667,0.0 20.0 40.0 60.0 80.0 100.0 120.0 140.0 160.0 180.0 200.0 220.0 240.0 260.0 280.0 300.0 320.0 340.0 360.0 380.0 400.0 420.0 440.0 460.0 480.0 500.0 520.0 540.0 560.0 580.0 600.0 620.0 640.0 660.0 680.0 700.0 720.0 740.0 760.0 780.0 800.0 820.0 840.0 860.0 880.0 900.0 920.0
cb_08,16.0,enc_trial,stim,response,STEM students,1648.7999999999884,enc_trial,1.0,16.0,s_s_15_2,student_stem,fold-c,jumper cables,8.0,unique,far,paired,s_s_15_2.jpg,stem,student-b1,STEM students,Fine Arts students,sub-12,1.0,1.0,1.0,1.0,0.501171875 0.511328125 0.520703125 0.523046875 0.521484375 0.516796875 0.515234375 0.522265625 0.533984375 0.548828125 0.567578125 0.576953125 0.580078125 0.571484375 0.558984375 0.537109375 0.530078125 0.529296875 0.541796875 0.552734375 0.557421875 0.545703125 0.520703125 0.476953125 0.456640625 0.451953125 0.462890625 0.500390625 0.597265625 0.645703125 0.658203125 0.666796875 0.681640625 0.711328125 0.720703125 0.720703125 0.713671875 0.683984375 0.588671875 0.451953125 0.378515625 0.355859375 0.355078125 0.370703125 0.484765625 0.597265625 0.730078125 0.826953125 0.860546875 0.880078125 0.882421875 0.883203125 0.873046875 0.863671875 0.858984375 0.858984375 0.862109375 0.863671875 0.863671875 0.857421875 0.830078125 0.787890625 0.666015625 0.552734375 0.513671875 0.474609375 0.451171875 0.415234375 0.312890625 0.245703125 0.188671875 0.164453125 0.145703125 0.136328125 0.129296875 0.126953125 0.126171875 0.126171875 0.125390625,0.8041666666666667 0.7916666666666666 0.76875 0.75 0.71875 0.6916666666666667 0.678125 0.6520833333333333 0.6333333333333333 0.6145833333333333 0.5802083333333333 0.5552083333333333 0.5166666666666666 0.4739583333333334 0.4510416666666667 0.425 0.4083333333333333 0.396875 0.3697916666666666 0.353125 0.3375 0.31770833333333337 0.30000000000000004 0.275 0.265625 0.2583333333333333 0.2479166666666667 0.23125 0.20416666666666672 0.19062500000000004 0.18541666666666667 0.18333333333333326 0.17708333333333334 0.16979166666666667 0.16666666666666666 0.16666666666666666 0.16666666666666666 0.16666666666666666 0.16666666666666666 0.16666666666666666 0.16666666666666666 0.16666666666666666 0.16666666666666666 0.1635416666666667 0.16145833333333334 0.16145833333333334 0.16145833333333334 0.16145833333333334 0.16145833333333334 0.16145833333333334 0.16145833333333334 0.16145833333333334 0.16041666666666665 0.16041666666666665 0.15833333333333333 0.15833333333333333 0.15833333333333333 0.15729166666666672 0.15520833333333328 0.15312499999999996 0.15000000000000002 0.15000000000000002 0.15000000000000002 0.15000000000000002 0.15000000000000002 0.14166666666666672 0.13645833333333335 0.1322916666666667 0.13020833333333334 0.13020833333333334 0.13020833333333334 0.13020833333333334 0.13020833333333334 0.12812500000000004 0.12812500000000004 0.12812500000000004 0.12812500000000004 0.12812500000000004 0.12812500000000004,0.0 20.0 40.0 60.0 80.0 100.0 120.0 140.0 160.0 180.0 200.0 220.0 240.0 260.0 280.0 300.0 320.0 340.0 360.0 380.0 400.0 420.0 440.0 460.0 480.0 500.0 520.0 540.0 560.0 580.0 600.0 620.0 640.0 660.0 680.0 700.0 720.0 740.0 760.0 780.0 800.0 820.0 840.0 860.0 880.0 900.0 920.0 940.0 960.0 980.0 1000.0 1020.0 1040.0 1060.0 1080.0 1100.0 1120.0 1140.0 1160.0 1180.0 1200.0 1220.0 1240.0 1260.0 1280.0 1300.0 1320.0 1340.0 1360.0 1380.0 1400.0 1420.0 1440.0 1460.0 1480.0 1500.0 1520.0 1540.0 1560.0
cb_08,17.0,enc_trial,stim,response,Fine Arts students,1038.2000000476835,enc_trial,1.0,17.0,s_a_06_2,student_art,fold-d,pastels,8.0,unique,close,paired,s_a_06_2.jpg,art,student-b1,STEM students,Fine Arts students,sub-12,1.0,1.0,1.0,1.0,0.545703125 0.545703125 0.542578125 0.538671875 0.533984375 0.533203125 0.534765625 0.557421875 0.612109375 0.628515625 0.660546875 0.666015625 0.661328125 0.639453125 0.623046875 0.594140625 0.567578125 0.557421875 0.530859375 0.513671875 0.505859375 0.501953125 0.502734375 0.516015625 0.604296875 0.651953125 0.805078125 0.891015625 0.962890625 0.980859375 0.983984375 0.983984375 0.983984375 0.980078125 0.971484375 0.956640625 0.933203125 0.914453125 0.908203125 0.904296875 0.902734375 0.895703125 0.883984375 0.869140625 0.855078125 0.853515625 0.853515625 0.853515625 0.853515625 0.858203125 0.859765625 0.861328125,0.8166666666666667 0.8145833333333333 0.8 0.7802083333333334 0.7697916666666667 0.7552083333333334 0.7427083333333333 0.7135416666666667 0.6666666666666667 0.6541666666666667 0.6166666666666667 0.5947916666666666 0.5583333333333333 0.525 0.5041666666666667 0.4666666666666667 0.4291666666666667 0.4166666666666666 0.3822916666666667 0.35416666666666663 0.3416666666666667 0.325 0.3145833333333333 0.2958333333333333 0.246875 0.23125 0.1875 0.16249999999999998 0.14375000000000004 0.13541666666666666 0.1333333333333333 0.1333333333333333 0.1333333333333333 0.1333333333333333 0.1333333333333333 0.13437500000000002 0.140625 0.14583333333333334 0.14687499999999998 0.14687499999999998 0.14687499999999998 0.14687499999999998 0.14687499999999998 0.14687499999999998 0.14687499999999998 0.14687499999999998 0.14687499999999998 0.14687499999999998 0.14687499999999998 0.14687499999999998 0.14687499999999998 0.14687499999999998,6.899999999994179 26.89999999999418 46.89999999999418 66.89999999999418 86.89999999999418 106.89999999999418 126.89999999999418 146.89999999999418 166.89999999999418 186.89999999999415 206.89999999999415 226.89999999999415 246.89999999999415 266.8999999999942 286.8999999999942 306.8999999999942 326.8999999999942 346.8999999999942 366.8999999999942 386.8999999999942 406.8999999999942 426.8999999999942 446.8999999999942 466.8999999999942 486.8999999999942 506.8999999999942 526.8999999999942 546.8999999999942 566.8999999999943 586.8999999999943 606.8999999999943 626.8999999999943 646.8999999999943 666.8999999999943 686.8999999999943 706.8999999999942 726.8999999999942 746.8999999999942 766.8999999999942 786.8999999999942 806.8999999999942 826.8999999999942 846.8999999999942 866.8999999999942 886.8999999999942 906.8999999999942 926.8999999999942 946.8999999999942 966.8999999999942 986.8999999999942 1006.8999999999942 1026.8999999999942
cb_08,18.0,enc_trial,stim,response,Fine Arts students,1607.2000000357516,enc_trial,1.0,18.0,s_sh_20_1,student_shared,fold-c,tape,8.0,competing,far,paired,s_sh_20_1.jpg,,student-b1,STEM students,Fine Arts students,sub-12,0.0,0.0,1.0,1.0,0.493359375 0.499609375 0.523046875 0.545703125 0.557421875 0.564453125 0.562890625 0.554296875 0.545703125 0.541796875 0.534765625 0.533203125 0.534765625 0.545703125 0.547265625 0.547265625 0.547265625 0.547265625 0.547265625 0.547265625 0.547265625 0.558203125 0.569921875 0.589453125 0.608203125 0.613671875 0.614453125 0.599609375 0.579296875 0.528515625 0.505859375 0.501171875 0.523046875 0.563671875 0.613671875 0.661328125 0.672265625 0.675390625 0.665234375 0.646484375 0.623046875 0.606640625 0.590234375 0.576953125 0.559765625 0.539453125 0.519921875 0.476953125 0.426171875 0.334765625 0.280859375 0.245703125 0.220703125 0.218359375 0.218359375 0.221484375 0.227734375 0.254296875 0.308203125 0.333203125 0.426953125 0.539453125 0.601953125 0.654296875 0.676953125 0.693359375 0.718359375 0.734765625 0.762109375 0.774609375 0.781640625 0.789453125 0.795703125 0.801953125 0.802734375 0.807421875 0.823046875 0.845703125 0.857421875 0.858984375,0.790625 0.784375 0.7666666666666666 0.7416666666666667 0.725 0.7 0.6833333333333333 0.659375 0.634375 0.6239583333333334 0.590625 0.5572916666666667 0.5333333333333333 0.50625 0.4979166666666667 0.4979166666666667 0.4979166666666667 0.4979166666666667 0.4979166666666667 0.4979166666666667 0.4979166666666667 0.5 0.5 0.4979166666666667 0.4791666666666666 0.4635416666666666 0.4375 0.38125 0.3520833333333333 0.3197916666666667 0.3083333333333333 0.303125 0.28645833333333337 0.265625 0.23750000000000004 0.20520833333333333 0.19166666666666665 0.16770833333333335 0.14583333333333334 0.1177083333333333 0.09999999999999998 0.09166666666666667 0.0864583333333333 0.08333333333333337 0.078125 0.07291666666666663 0.06874999999999998 0.06874999999999998 0.06874999999999998 0.06874999999999998 0.06874999999999998 0.0697916666666667 0.07499999999999996 0.078125 0.08333333333333337 0.09270833333333328 0.1010416666666667 0.109375 0.109375 0.109375 0.109375 0.109375 0.109375 0.109375 0.109375 0.109375 0.109375 0.109375 0.109375 0.109375 0.11145833333333333 0.11354166666666665 0.1166666666666667 0.1166666666666667 0.1177083333333333 0.11875000000000002 0.12187499999999996 0.12187499999999996 0.12291666666666667 0.12291666666666667,0.0 20.0 40.0 60.0 80.0 100.0 120.0 140.0 160.0 180.0 200.0 220.0 240.0 260.0 280.0 300.0 320.0 340.0 360.0 380.0 400.0 420.0 440.0 460.0 480.0 500.0 520.0 540.0 560.0 580.0 600.0 620.0 640.0 660.0 680.0 700.0 720.0 740.0 760.0 780.0 800.0 820.0 840.0 860.0 880.0 900.0 920.0 940.0 960.0 980.0 1000.0 1020.0 1040.0 1060.0 1080.0 1100.0 1120.0 1140.0 1160.0 1180.0 1200.0 1220.0 1240.0 1260.0 1280.0 1300.0 1320.0 1340.0 1360.0 1380.0 1400.0 1420.0 1440.0 1460.0 1480.0 1500.0 1520.0 1540.0 1560.0 1580.0
cb_08,19.0,enc_trial,stim,response,Fine Arts students,1014.7000000238477,enc_trial,1.0,19.0,s_a_12_2,student_art,fold-c,saxophone,8.0,unique,far,paired,s_a_12_2.jpg,art,student-b1,STEM students,Fine Arts students,sub-12,1.0,1.0,1.0,1.0,0.502734375 0.502734375 0.501171875 0.500390625 0.508984375 0.530859375 0.548828125 0.554296875 0.555078125 0.552734375 0.539453125 0.513671875 0.495703125 0.487890625 0.491015625 0.520703125 0.570703125 0.582421875 0.599609375 0.598046875 0.581640625 0.525390625 0.474609375 0.391015625 0.335546875 0.318359375 0.308984375 0.303515625 0.301953125 0.301171875 0.302734375 0.323828125 0.365234375 0.408984375 0.469921875 0.571484375 0.613671875 0.649609375 0.669140625 0.696484375 0.724609375 0.741015625 0.753515625 0.772265625 0.791796875 0.825390625 0.843359375 0.857421875 0.858203125,0.734375 0.7166666666666667 0.6947916666666667 0.65 0.6166666666666667 0.578125 0.55625 0.5447916666666667 0.53125 0.525 0.5020833333333333 0.4833333333333333 0.4729166666666666 0.465625 0.4572916666666666 0.434375 0.4041666666666667 0.39479166666666665 0.3729166666666667 0.34895833333333337 0.3291666666666667 0.30000000000000004 0.2833333333333333 0.2677083333333333 0.26041666666666663 0.2572916666666667 0.25416666666666665 0.2479166666666667 0.24479166666666666 0.24479166666666666 0.240625 0.2302083333333333 0.215625 0.20416666666666672 0.19062500000000004 0.1645833333333333 0.15833333333333333 0.15833333333333333 0.15833333333333333 0.15833333333333333 0.15833333333333333 0.15833333333333333 0.15833333333333333 0.15833333333333333 0.15833333333333333 0.15416666666666667 0.15312499999999996 0.15312499999999996 0.15312499999999996,0.0 20.0 40.0 60.0 80.0 100.0 120.0 140.0 160.0 180.0 200.0 220.0 240.0 260.0 280.0 300.0 320.0 340.0 360.0 380.0 400.0 420.0 440.0 460.0 480.0 500.0 520.0 540.0 560.0 580.0 600.0 620.0 640.0 660.0 680.0 700.0 720.0 740.0 760.0 780.0 800.0 820.0 840.0 860.0 880.0 900.0 920.0 940.0 960.0
cb_08,20.0,enc_trial,stim,response,Fine Arts students,1526.2000000000116,enc_trial,1.0,20.0,s_a_09_1,student_art,fold-e-single,picture frame,8.0,unique,,single,s_a_09_1.jpg,art,student-b1,STEM students,Fine Arts students,sub-12,1.0,,1.0,,0.473828125 0.465234375 0.463671875 0.463671875 0.474609375 0.520703125 0.551953125 0.570703125 0.573046875 0.571484375 0.551171875 0.513671875 0.480078125 0.438671875 0.430859375 0.429296875 0.441796875 0.455078125 0.539453125 0.630078125 0.660546875 0.668359375 0.660546875 0.620703125 0.544921875 0.516015625 0.451953125 0.408203125 0.384765625 0.350390625 0.323828125 0.279296875 0.232421875 0.212890625 0.199609375 0.194921875 0.194140625 0.194140625 0.194140625 0.201953125 0.214453125 0.219140625 0.219140625 0.214453125 0.202734375 0.176953125 0.161328125 0.151953125 0.151171875 0.150390625 0.150390625 0.150390625 0.150390625 0.150390625 0.151953125 0.169921875 0.225390625 0.290234375 0.373046875 0.385546875 0.403515625 0.415234375 0.430859375 0.505859375 0.635546875 0.703515625 0.759765625 0.770703125 0.795703125 0.812109375 0.816796875 0.823046875 0.830859375 0.851171875 0.859765625,0.7958333333333334 0.7916666666666666 0.7895833333333333 0.7895833333333333 0.7875 0.7697916666666667 0.753125 0.7322916666666667 0.7083333333333333 0.7 0.675 0.65625 0.65 0.65 0.65 0.65 0.6447916666666667 0.6395833333333334 0.584375 0.496875 0.44895833333333335 0.4041666666666667 0.375 0.328125 0.275 0.2614583333333333 0.2239583333333333 0.1927083333333333 0.17500000000000004 0.15104166666666666 0.14166666666666672 0.12916666666666665 0.12604166666666672 0.12604166666666672 0.12604166666666672 0.13020833333333334 0.13124999999999998 0.1333333333333333 0.13854166666666667 0.14687499999999998 0.15833333333333333 0.16041666666666665 0.16041666666666665 0.15833333333333333 0.15520833333333328 0.15312499999999996 0.15312499999999996 0.15312499999999996 0.15312499999999996 0.15312499999999996 0.15312499999999996 0.15312499999999996 0.15312499999999996 0.15312499999999996 0.15312499999999996 0.15312499999999996 0.15312499999999996 0.15312499999999996 0.15312499999999996 0.15312499999999996 0.15312499999999996 0.15312499999999996 0.15312499999999996 0.15312499999999996 0.15312499999999996 0.15312499999999996 0.15312499999999996 0.15312499999999996 0.15312499999999996 0.15312499999999996 0.15312499999999996 0.15416666666666667 0.15625 0.15833333333333333 0.15937500000000004,0.0 20.0 40.0 60.0 80.0 100.0 120.0 140.0 160.0 180.0 200.0 220.0 240.0 260.0 280.0 300.0 320.0 340.0 360.0 380.0 400.0 420.0 440.0 460.0 480.0 500.0 520.0 540.0 560.0 580.0 600.0 620.0 640.0 660.0 680.0 700.0 720.0 740.0 760.0 780.0 800.0 820.0 840.0 860.0 880.0 900.0 920.0 940.0 960.0 980.0 1000.0 1020.0 1040.0 1060.0 1080.0 1100.0 1120.0 1140.0 1160.0 1180.0 1200.0 1220.0 1240.0 1260.0 1280.0 1300.0 1320.0 1340.0 1360.0 1380.0 1400.0 1420.0 1440.0 1460.0 1480.0
cb_08,21.0,enc_trial,stim,response,Fine Arts students,841.1000000119092,enc_trial,1.0,21.0,s_a_15_1,student_art,fold-d,drum kit,8.0,unique,close,paired,s_a_15_1.jpg,art,student-b1,STEM students,Fine Arts students,sub-12,1.0,1.0,1.0,1.0,0.509765625 0.519140625 0.545703125 0.563671875 0.587890625 0.596484375 0.601953125 0.601953125 0.601953125 0.601171875 0.593359375 0.582421875 0.555859375 0.538671875 0.517578125 0.503515625 0.498046875 0.496484375 0.508203125 0.526953125 0.570703125 0.601953125 0.632421875 0.645703125 0.651953125 0.661328125 0.665234375 0.666796875 0.668359375 0.668359375 0.669921875 0.683203125 0.710546875 0.769921875 0.787109375 0.830078125 0.858984375 0.871484375 0.886328125 0.891015625,0.709375 0.6947916666666667 0.6645833333333333 0.6447916666666667 0.6177083333333333 0.6041666666666667 0.5916666666666667 0.5875 0.584375 0.58125 0.5770833333333334 0.571875 0.5583333333333333 0.55 0.5385416666666667 0.5270833333333333 0.5197916666666667 0.5114583333333333 0.4791666666666666 0.44895833333333335 0.3854166666666666 0.34791666666666665 0.30208333333333337 0.26875000000000004 0.2520833333333333 0.23125 0.22187500000000004 0.21666666666666667 0.20208333333333328 0.19062500000000004 0.17500000000000004 0.1645833333333333 0.15729166666666672 0.15104166666666666 0.15104166666666666 0.15104166666666666 0.15104166666666666 0.15104166666666666 0.15104166666666666 0.15104166666666666,7.0 27.0 47.0 67.0 87.0 107.0 127.0 147.0 167.0 187.0 207.0 227.0 247.0 267.0 287.0 307.0 327.0 347.0 367.0 387.0 407.0 427.0 447.0 467.0 487.0 507.0 527.0 547.0 567.0 587.0 607.0 627.0 647.0 667.0 687.0 707.0 727.0 747.0 767.0 787.0
cb_08,22.0,enc_trial,stim,response,STEM students,1109.1000000000058,enc_trial,1.0,22.0,s_s_19_2,student_stem,fold-c,circuit board,8.0,unique,far,paired,s_s_19_2.jpg,stem,student-b1,STEM students,Fine Arts students,sub-12,1.0,1.0,1.0,1.0,0.545703125 0.551171875 0.555078125 0.558203125 0.558203125 0.558203125 0.558984375 0.558203125 0.558203125 0.558203125 0.558203125 0.556640625 0.554296875 0.554296875 0.555859375 0.558984375 0.563671875 0.566015625 0.570703125 0.584765625 0.597265625 0.613671875 0.616015625 0.616015625 0.616015625 0.616015625 0.616015625 0.616015625 0.616015625 0.616015625 0.616015625 0.608203125 0.576171875 0.530859375 0.470703125 0.355078125 0.282421875 0.193359375 0.139453125 0.119140625 0.103515625 0.098046875 0.094921875 0.090234375 0.087890625 0.080859375 0.079296875 0.077734375 0.077734375 0.077734375 0.077734375 0.078515625 0.082421875 0.089453125 0.090234375,0.8177083333333334 0.8125 0.8072916666666666 0.8 0.7947916666666667 0.7947916666666667 0.790625 0.7895833333333333 0.7895833333333333 0.7895833333333333 0.7895833333333333 0.7864583333333334 0.7770833333333333 0.76875 0.7364583333333333 0.7072916666666667 0.646875 0.603125 0.5510416666666667 0.4833333333333333 0.44166666666666665 0.4083333333333333 0.4 0.4 0.4 0.4 0.4 0.4 0.4 0.4 0.3989583333333333 0.3916666666666667 0.359375 0.33125000000000004 0.290625 0.2302083333333333 0.20625000000000004 0.1791666666666667 0.1645833333333333 0.15937500000000004 0.15312499999999996 0.15000000000000002 0.1489583333333333 0.14583333333333334 0.14479166666666665 0.14270833333333333 0.14270833333333333 0.14270833333333333 0.14270833333333333 0.14270833333333333 0.14270833333333333 0.14270833333333333 0.14375000000000004 0.14583333333333334 0.14583333333333334,0.0 20.0 40.0 60.0 80.0 100.0 120.0 140.0 160.0 180.0 200.0 220.0 240.0 260.0 280.0 300.0 320.0 340.0 360.0 380.0 400.0 420.0 440.0 460.0 480.0 500.0 520.0 540.0 560.0 580.0 600.0 620.0 640.0 660.0 680.0 700.0 720.0 740.0 760.0 780.0 800.0 820.0 840.0 860.0 880.0 900.0 920.0 940.0 960.0 980.0 1000.0 1020.0 1040.0 1060.0 1080.0
cb_08,23.0,enc_trial,stim,response,STEM students,1600.000000023836,enc_trial,1.0,23.0,s_sh_04_1,student_shared,fold-c,laptop stand,8.0,competing,far,paired,s_sh_04_1.jpg,,student-b1,STEM students,Fine Arts students,sub-12,1.0,1.0,1.0,0.0,0.514453125 0.518359375 0.537109375 0.558203125 0.564453125 0.568359375 0.569140625 0.569140625 0.569140625 0.569140625 0.569140625 0.569140625 0.566015625 0.559765625 0.550390625 0.542578125 0.569921875 0.586328125 0.644921875 0.668359375 0.676171875 0.666796875 0.653515625 0.634765625 0.632421875 0.635546875 0.655078125 0.695703125 0.768359375 0.807421875 0.819921875 0.820703125 0.820703125 0.820703125 0.820703125 0.820703125 0.821484375 0.836328125 0.851171875 0.863671875 0.865234375 0.866015625 0.866015625 0.864453125 0.833203125 0.770703125 0.727734375 0.682421875 0.661328125 0.651953125 0.651953125 0.651953125 0.655078125 0.655078125 0.633203125 0.569921875 0.508203125 0.398046875 0.337109375 0.326953125 0.316796875 0.316796875 0.316796875 0.314453125 0.314453125 0.314453125 0.318359375 0.318359375 0.318359375 0.316015625 0.298046875 0.269140625 0.245703125 0.209765625 0.187109375 0.183984375 0.180078125,0.7864583333333334 0.784375 0.76875 0.7552083333333334 0.7479166666666667 0.7385416666666667 0.7333333333333334 0.7270833333333333 0.725 0.725 0.7208333333333333 0.7177083333333334 0.703125 0.6708333333333334 0.640625 0.5875 0.5052083333333333 0.4708333333333333 0.37916666666666665 0.340625 0.303125 0.26875000000000004 0.2510416666666667 0.228125 0.21666666666666667 0.20729166666666665 0.19166666666666665 0.17083333333333328 0.1479166666666667 0.13437500000000002 0.13020833333333334 0.12916666666666665 0.12916666666666665 0.12812500000000004 0.12812500000000004 0.12812500000000004 0.125 0.1177083333333333 0.1166666666666667 0.11354166666666665 0.11354166666666665 0.11354166666666665 0.11354166666666665 0.11458333333333336 0.12187499999999996 0.12395833333333328 0.12395833333333328 0.12395833333333328 0.12395833333333328 0.12395833333333328 0.125 0.12604166666666672 0.12604166666666672 0.12604166666666672 0.1177083333333333 0.10624999999999996 0.10520833333333336 0.11875000000000002 0.12187499999999996 0.12187499999999996 0.12187499999999996 0.12187499999999996 0.12187499999999996 0.12187499999999996 0.12187499999999996 0.13020833333333334 0.13541666666666666 0.13541666666666666 0.13541666666666666 0.13645833333333335 0.13645833333333335 0.13645833333333335 0.13645833333333335 0.13645833333333335 0.13645833333333335 0.13645833333333335 0.13645833333333335,0.0 20.0 40.0 60.0 80.0 100.0 120.0 140.0 160.0 180.0 200.0 220.0 240.0 260.0 280.0 300.0 320.0 340.0 360.0 380.0 400.0 420.0 440.0 460.0 480.0 500.0 520.0 540.0 560.0 580.0 600.0 620.0 640.0 660.0 680.0 700.0 720.0 740.0 760.0 780.0 800.0 820.0 840.0 860.0 880.0 900.0 920.0 940.0 960.0 980.0 1000.0 1020.0 1040.0 1060.0 1080.0 1100.0 1120.0 1140.0 1160.0 1180.0 1200.0 1220.0 1240.0 1260.0 1280.0 1300.0 1320.0 1340.0 1360.0 1380.0 1400.0 1420.0 1440.0 1460.0 1480.0 1500.0 1520.0
cb_08,24.0,enc_trial,stim,response,Fine Arts students,861.7000000000116,enc_trial,1.0,24.0,s_a_14_2,student_art,fold-c,guitar pick,8.0,unique,far,paired,s_a_14_2.jpg,art,student-b1,STEM students,Fine Arts students,sub-12,1.0,1.0,1.0,1.0,0.520703125 0.550390625 0.578515625 0.605859375 0.613671875 0.615234375 0.602734375 0.588671875 0.561328125 0.545703125 0.531640625 0.516015625 0.508203125 0.508203125 0.511328125 0.510546875 0.510546875 0.510546875 0.510546875 0.510546875 0.510546875 0.510546875 0.511328125 0.520703125 0.566796875 0.608984375 0.632421875 0.665234375 0.687890625 0.712109375 0.726953125 0.745703125 0.763671875 0.772265625 0.781640625 0.794921875 0.806640625 0.820703125 0.826953125 0.833984375 0.848046875 0.856640625 0.861328125 0.862109375,0.7979166666666666 0.7729166666666667 0.7489583333333334 0.721875 0.7083333333333333 0.6822916666666667 0.6375 0.6020833333333333 0.5458333333333334 0.5114583333333333 0.48125 0.428125 0.3916666666666667 0.3583333333333333 0.3427083333333333 0.3416666666666667 0.3416666666666667 0.3416666666666667 0.3416666666666667 0.3416666666666667 0.3416666666666667 0.3416666666666667 0.3416666666666667 0.3416666666666667 0.31875 0.2947916666666667 0.2770833333333333 0.259375 0.25520833333333337 0.25312500000000004 0.25312500000000004 0.25312500000000004 0.2479166666666667 0.2458333333333333 0.2427083333333333 0.2395833333333333 0.2354166666666667 0.2322916666666667 0.22916666666666666 0.21979166666666672 0.203125 0.1958333333333333 0.19166666666666665 0.19166666666666665,0.0 20.0 40.0 60.0 80.0 100.0 120.0 140.0 160.0 180.0 200.0 220.0 240.0 260.0 280.0 300.0 320.0 340.0 360.0 380.0 400.0 420.0 440.0 460.0 480.0 500.0 520.0 540.0 560.0 580.0 600.0 620.0 640.0 660.0 680.0 700.0 720.0 740.0 760.0 780.0 800.0 820.0 840.0 860.0
cb_08,25.0,enc_trial,stim,response,STEM students,1885.1000000357744,enc_trial,1.0,25.0,s_sh_18_1,student_shared,fold-c,wall calendar,8.0,competing,far,paired,s_sh_18_1.jpg,,student-b1,STEM students,Fine Arts students,sub-12,1.0,1.0,0.0,0.0,0.487109375 0.490234375 0.492578125 0.491796875 0.488671875 0.483203125 0.482421875 0.507421875 0.542578125 0.583203125 0.621484375 0.628515625 0.615234375 0.589453125 0.514453125 0.466015625 0.457421875 0.457421875 0.464453125 0.494140625 0.521484375 0.528515625 0.530859375 0.524609375 0.508203125 0.497265625 0.486328125 0.466796875 0.437109375 0.400390625 0.310546875 0.239453125 0.169140625 0.141015625 0.139453125 0.135546875 0.135546875 0.136328125 0.136328125 0.136328125 0.136328125 0.135546875 0.135546875 0.127734375 0.126171875 0.125390625 0.125390625 0.123828125 0.123828125 0.133203125 0.137109375 0.146484375 0.149609375 0.151171875 0.155078125 0.166015625 0.212890625 0.295703125 0.358203125 0.411328125 0.439453125 0.441015625 0.439453125 0.426953125 0.395703125 0.334765625 0.272265625 0.207421875 0.116015625 0.078515625 0.051171875 0.045703125 0.044140625 0.041796875 0.041796875 0.041796875 0.041796875 0.041796875 0.041796875 0.041796875 0.041796875 0.041796875 0.041796875 0.041796875 0.041796875 0.047265625 0.055078125 0.062890625 0.073046875 0.083203125 0.093359375 0.095703125 0.095703125 0.096484375,0.8239583333333333 0.8145833333333333 0.7947916666666667 0.778125 0.7520833333333333 0.7333333333333334 0.7041666666666666 0.6479166666666667 0.5916666666666667 0.5322916666666666 0.465625 0.4364583333333333 0.39583333333333337 0.36875 0.3239583333333333 0.296875 0.2895833333333333 0.28437500000000004 0.271875 0.24479166666666666 0.2125 0.1958333333333333 0.17291666666666672 0.15625 0.1322916666666667 0.12187499999999996 0.11562499999999998 0.10520833333333336 0.09479166666666672 0.08854166666666663 0.08333333333333337 0.08437499999999998 0.1010416666666667 0.109375 0.11145833333333333 0.1166666666666667 0.12395833333333328 0.13020833333333334 0.1333333333333333 0.13541666666666666 0.13541666666666666 0.13854166666666667 0.13854166666666667 0.13958333333333328 0.13958333333333328 0.13958333333333328 0.13958333333333328 0.140625 0.14166666666666672 0.14479166666666665 0.14583333333333334 0.1479166666666667 0.1479166666666667 0.1479166666666667 0.1479166666666667 0.1479166666666667 0.1479166666666667 0.1479166666666667 0.1479166666666667 0.1479166666666667 0.1479166666666667 0.1479166666666667 0.1479166666666667 0.140625 0.1322916666666667 0.13020833333333334 0.13020833333333334 0.13020833333333334 0.13020833333333334 0.13020833333333334 0.13020833333333334 0.13020833333333334 0.13020833333333334 0.13020833333333334 0.13020833333333334 0.13020833333333334 0.13020833333333334 0.13020833333333334 0.13020833333333334 0.13020833333333334 0.13020833333333334 0.13020833333333334 0.13020833333333334 0.13020833333333334 0.13020833333333334 0.13020833333333334 0.1333333333333333 0.13437500000000002 0.13541666666666666 0.13854166666666667 0.13854166666666667 0.13854166666666667 0.13854166666666667 0.13854166666666667,41.70000000001164 61.70000000001164 81.70000000001164 101.70000000001164 121.70000000001164 141.7000000000116 161.7000000000116 181.70000000001164 201.70000000001164 221.70000000001164 241.70000000001164 261.70000000001164 281.70000000001164 301.70000000001164 321.70000000001164 341.70000000001164 361.7000000000117 381.7000000000117 401.7000000000117 421.7000000000117 441.7000000000117 461.7000000000117 481.7000000000117 501.7000000000117 521.7000000000116 541.7000000000116 561.7000000000116 581.7000000000116 601.7000000000116 621.7000000000116 641.7000000000116 661.7000000000116 681.7000000000116 701.7000000000116 721.7000000000116 741.7000000000116 761.7000000000116 781.7000000000116 801.7000000000116 821.7000000000116 841.7000000000116 861.7000000000116 881.7000000000116 901.7000000000116 921.7000000000116 941.7000000000116 961.7000000000116 981.7000000000116 1001.7000000000116 1021.7000000000116 1041.7000000000116 1061.7000000000116 1081.7000000000116 1101.7000000000116 1121.7000000000116 1141.7000000000114 1161.7000000000114 1181.7000000000114 1201.7000000000114 1221.7000000000114 1241.7000000000114 1261.7000000000114 1281.7000000000114 1301.7000000000114 1321.7000000000114 1341.7000000000114 1361.7000000000114 1381.7000000000116 1401.7000000000116 1421.7000000000116 1441.7000000000116 1461.7000000000116 1481.7000000000116 1501.7000000000116 1521.7000000000116 1541.7000000000116 1561.7000000000116 1581.7000000000116 1601.7000000000116 1621.7000000000116 1641.7000000000116 1661.7000000000116 1681.7000000000116 1701.7000000000116 1721.7000000000116 1741.7000000000116 1761.7000000000116 1781.7000000000116 1801.7000000000119 1821.7000000000119 1841.7000000000119 1861.7000000000119 1881.7000000000119 1901.7000000000119
cb_08,26.0,enc_trial,stim,response,Fine Arts students,886.2000000000116,enc_trial,1.0,26.0,s_a_15_2,student_art,fold-d,drum kit,8.0,unique,close,paired,s_a_15_2.jpg,art,student-b1,STEM students,Fine Arts students,sub-12,1.0,1.0,1.0,1.0,0.488671875 0.489453125 0.491796875 0.494140625 0.497265625 0.501171875 0.512109375 0.537109375 0.555078125 0.569140625 0.578515625 0.583203125 0.579296875 0.573046875 0.552734375 0.539453125 0.532421875 0.531640625 0.533203125 0.555859375 0.585546875 0.597265625 0.601171875 0.594140625 0.572265625 0.564453125 0.561328125 0.571484375 0.635546875 0.705078125 0.795703125 0.829296875 0.857421875 0.875390625 0.880078125 0.890234375 0.895703125 0.898828125 0.907421875 0.914453125 0.918359375 0.918359375 0.919140625,0.8072916666666666 0.803125 0.7927083333333333 0.7822916666666666 0.7666666666666666 0.753125 0.7322916666666667 0.7052083333333333 0.6885416666666666 0.66875 0.65 0.6302083333333333 0.6104166666666666 0.5989583333333333 0.584375 0.5760416666666667 0.5708333333333333 0.5708333333333333 0.565625 0.5416666666666667 0.5083333333333333 0.4864583333333333 0.4520833333333333 0.428125 0.4083333333333333 0.4 0.39583333333333337 0.3822916666666667 0.3447916666666667 0.30625 0.259375 0.2395833333333333 0.225 0.215625 0.2125 0.20729166666666665 0.20520833333333333 0.203125 0.19895833333333326 0.1947916666666667 0.1927083333333333 0.1927083333333333 0.19166666666666665,34.80000000001746 54.80000000001746 74.80000000001745 94.80000000001745 114.80000000001745 134.80000000001746 154.80000000001746 174.80000000001746 194.80000000001743 214.80000000001743 234.80000000001743 254.80000000001743 274.8000000000174 294.8000000000174 314.8000000000174 334.8000000000174 354.80000000001746 374.80000000001746 394.80000000001746 414.80000000001746 434.80000000001746 454.80000000001746 474.80000000001746 494.80000000001746 514.8000000000175 534.8000000000175 554.8000000000175 574.8000000000175 594.8000000000175 614.8000000000175 634.8000000000175 654.8000000000175 674.8000000000175 694.8000000000176 714.8000000000176 734.8000000000176 754.8000000000176 774.8000000000176 794.8000000000176 814.8000000000176 834.8000000000176 854.8000000000176 874.8000000000176
cb_08,27.0,enc_trial,stim,response,Fine Arts students,1423.6999999999825,enc_trial,1.0,27.0,s_sh_16_1,student_shared,fold-a,stapler,8.0,competing,close,paired,s_sh_16_1.jpg,,student-b1,STEM students,Fine Arts students,sub-12,1.0,1.0,0.0,1.0,0.514453125 0.511328125 0.508203125 0.505078125 0.505078125 0.509765625 0.525390625 0.533984375 0.544140625 0.543359375 0.539453125 0.527734375 0.508984375 0.502734375 0.501953125 0.509765625 0.526953125 0.535546875 0.538671875 0.539453125 0.528515625 0.516015625 0.487109375 0.461328125 0.413671875 0.389453125 0.376953125 0.373046875 0.371484375 0.370703125 0.357421875 0.341015625 0.311328125 0.291015625 0.275390625 0.264453125 0.264453125 0.263671875 0.258203125 0.254296875 0.250390625 0.250390625 0.250390625 0.250390625 0.250390625 0.250390625 0.253515625 0.290234375 0.453515625 0.580859375 0.687890625 0.762890625 0.776953125 0.782421875 0.787109375 0.794921875 0.804296875 0.814453125 0.826171875 0.830859375 0.832421875 0.832421875 0.833203125 0.845703125 0.883984375 0.903515625 0.914453125 0.916015625,0.8291666666666666 0.8260416666666667 0.8239583333333333 0.8145833333333333 0.803125 0.784375 0.75 0.7177083333333334 0.6635416666666667 0.63125 0.6 0.5635416666666666 0.5375 0.5208333333333333 0.4989583333333333 0.478125 0.44166666666666665 0.4208333333333333 0.4052083333333333 0.3739583333333333 0.3416666666666667 0.325 0.30208333333333337 0.2885416666666667 0.2625 0.2489583333333333 0.2416666666666667 0.23750000000000004 0.2364583333333333 0.2333333333333333 0.2239583333333333 0.215625 0.2083333333333333 0.20104166666666667 0.1958333333333333 0.19375 0.19375 0.1927083333333333 0.19062500000000004 0.18854166666666672 0.18854166666666672 0.18854166666666672 0.18854166666666672 0.18854166666666672 0.18854166666666672 0.18854166666666672 0.18854166666666672 0.18854166666666672 0.18854166666666672 0.18854166666666672 0.18854166666666672 0.18854166666666672 0.18854166666666672 0.18854166666666672 0.18854166666666672 0.18541666666666667 0.18541666666666667 0.18541666666666667 0.18541666666666667 0.18541666666666667 0.18541666666666667 0.18541666666666667 0.18541666666666667 0.18333333333333326 0.17291666666666672 0.17083333333333328 0.17083333333333328 0.17083333333333328,83.29999999998836 103.29999999998836 123.29999999998836 143.2999999999884 163.2999999999884 183.29999999998842 203.29999999998842 223.29999999998842 243.29999999998842 263.2999999999884 283.29999999998836 303.29999999998836 323.29999999998836 343.29999999998836 363.2999999999884 383.2999999999884 403.2999999999884 423.2999999999884 443.2999999999884 463.2999999999884 483.2999999999884 503.2999999999884 523.2999999999884 543.2999999999884 563.2999999999884 583.2999999999884 603.2999999999884 623.2999999999884 643.2999999999884 663.2999999999884 683.2999999999884 703.2999999999884 723.2999999999884 743.2999999999884 763.2999999999884 783.2999999999884 803.2999999999884 823.2999999999884 843.2999999999884 863.2999999999884 883.2999999999884 903.2999999999884 923.2999999999884 943.2999999999884 963.2999999999884 983.2999999999884 1003.2999999999884 1023.2999999999884 1043.2999999999884 1063.2999999999884 1083.2999999999884 1103.2999999999884 1123.2999999999884 1143.2999999999886 1163.2999999999886 1183.2999999999886 1203.2999999999886 1223.2999999999886 1243.2999999999886 1263.2999999999886 1283.2999999999886 1303.2999999999886 1323.2999999999886 1343.2999999999886 1363.2999999999886 1383.2999999999884 1403.2999999999884 1423.2999999999884
cb_08,28.0,enc_trial,stim,response,Fine Arts students,1083.6000000000058,enc_trial,1.0,28.0,s_sh_11_1,student_shared,fold-b-single,pencil case,8.0,competing,,single,s_sh_11_1.jpg,,student-b1,STEM students,Fine Arts students,sub-12,1.0,,1.0,,0.529296875 0.540234375 0.551171875 0.553515625 0.551953125 0.547265625 0.536328125 0.525390625 0.524609375 0.527734375 0.541015625 0.552734375 0.563671875 0.564453125 0.558203125 0.544921875 0.530859375 0.515234375 0.498046875 0.495703125 0.499609375 0.502734375 0.500390625 0.498046875 0.498046875 0.498046875 0.498046875 0.498046875 0.498046875 0.501953125 0.524609375 0.552734375 0.573828125 0.591796875 0.594921875 0.593359375 0.588671875 0.588671875 0.595703125 0.618359375 0.641796875 0.694140625 0.713671875 0.758984375 0.783203125 0.787109375 0.789453125 0.793359375 0.801953125 0.819921875 0.828515625 0.847265625 0.853515625,0.80625 0.8 0.7916666666666666 0.7864583333333334 0.7708333333333334 0.7604166666666666 0.7385416666666667 0.7166666666666667 0.7052083333333333 0.6833333333333333 0.6427083333333333 0.6104166666666666 0.5614583333333334 0.5364583333333333 0.5020833333333333 0.4666666666666667 0.4395833333333333 0.4135416666666667 0.3833333333333333 0.371875 0.36354166666666665 0.359375 0.3583333333333333 0.3572916666666667 0.3572916666666667 0.3572916666666667 0.3572916666666667 0.3572916666666667 0.3572916666666667 0.3583333333333333 0.3677083333333333 0.359375 0.33854166666666663 0.2989583333333333 0.28541666666666665 0.25312500000000004 0.23750000000000004 0.2333333333333333 0.225 0.21666666666666667 0.2114583333333333 0.1958333333333333 0.19062500000000004 0.17604166666666665 0.16979166666666667 0.16874999999999996 0.16874999999999996 0.16666666666666666 0.1645833333333333 0.15833333333333333 0.15625 0.15208333333333335 0.15104166666666666,0.0 20.0 40.0 60.0 80.0 100.0 120.0 140.0 160.0 180.0 200.0 220.0 240.0 260.0 280.0 300.0 320.0 340.0 360.0 380.0 400.0 420.0 440.0 460.0 480.0 500.0 520.0 540.0 560.0 580.0 600.0 620.0 640.0 660.0 680.0 700.0 720.0 740.0 760.0 780.0 800.0 820.0 840.0 860.0 880.0 900.0 920.0 940.0 960.0 980.0 1000.0 1020.0 1040.0
cb_08,29.0,enc_trial,stim,response,STEM students,1721.5000000119323,enc_trial,1.0,29.0,s_sh_13_1,student_shared,fold-b-single,index cards,8.0,competing,,single,s_sh_13_1.jpg,,student-b1,STEM students,Fine Arts students,sub-12,1.0,,1.0,,0.603515625 0.596484375 0.594921875 0.594921875 0.594140625 0.587109375 0.565234375 0.537109375 0.520703125 0.512890625 0.511328125 0.511328125 0.511328125 0.511328125 0.516796875 0.546484375 0.571484375 0.595703125 0.608203125 0.612890625 0.603515625 0.595703125 0.594921875 0.618359375 0.649609375 0.688671875 0.714453125 0.732421875 0.738671875 0.743359375 0.749609375 0.751953125 0.753515625 0.753515625 0.753515625 0.751953125 0.751953125 0.752734375 0.769140625 0.787109375 0.818359375 0.826953125 0.826953125 0.814453125 0.770703125 0.716796875 0.592578125 0.501953125 0.400390625 0.368359375 0.366015625 0.364453125 0.366015625 0.367578125 0.368359375 0.368359375 0.367578125 0.363671875 0.362890625 0.362890625 0.362890625 0.361328125 0.344921875 0.326953125 0.284765625 0.237109375 0.214453125 0.203515625 0.195703125 0.194140625 0.194140625 0.194140625 0.194140625 0.194140625 0.194140625 0.194140625 0.194140625 0.192578125 0.191796875 0.191796875 0.186328125 0.176171875 0.146484375 0.124609375 0.122265625 0.120703125,0.6541666666666667 0.6479166666666667 0.646875 0.646875 0.646875 0.65 0.66875 0.7083333333333333 0.7416666666666667 0.7583333333333333 0.7635416666666667 0.7635416666666667 0.7635416666666667 0.7614583333333333 0.7447916666666667 0.6583333333333333 0.6 0.5416666666666667 0.5 0.453125 0.41145833333333337 0.384375 0.34687500000000004 0.30729166666666663 0.27604166666666663 0.24375 0.22291666666666665 0.20625000000000004 0.1958333333333333 0.18958333333333333 0.1791666666666667 0.17500000000000004 0.17083333333333328 0.16666666666666666 0.16249999999999998 0.15416666666666667 0.15000000000000002 0.1489583333333333 0.14583333333333334 0.14583333333333334 0.13854166666666667 0.13645833333333335 0.13645833333333335 0.1333333333333333 0.1333333333333333 0.1333333333333333 0.1333333333333333 0.1333333333333333 0.1333333333333333 0.1333333333333333 0.1333333333333333 0.1333333333333333 0.1333333333333333 0.1333333333333333 0.1333333333333333 0.1333333333333333 0.1333333333333333 0.1333333333333333 0.1333333333333333 0.1333333333333333 0.1333333333333333 0.1333333333333333 0.1333333333333333 0.12812500000000004 0.12812500000000004 0.12812500000000004 0.12812500000000004 0.12812500000000004 0.12812500000000004 0.12812500000000004 0.12812500000000004 0.12812500000000004 0.12812500000000004 0.12812500000000004 0.12812500000000004 0.12812500000000004 0.12812500000000004 0.12812500000000004 0.12708333333333333 0.12708333333333333 0.12708333333333333 0.12708333333333333 0.13124999999999998 0.13749999999999996 0.13854166666666667 0.13854166666666667,6.900000000023283 26.900000000023283 46.900000000023276 66.90000000002328 86.90000000002328 106.90000000002328 126.90000000002328 146.90000000002328 166.90000000002328 186.90000000002328 206.90000000002328 226.90000000002328 246.90000000002328 266.9000000000233 286.9000000000233 306.9000000000233 326.9000000000233 346.90000000002334 366.90000000002334 386.90000000002334 406.90000000002334 426.90000000002334 446.90000000002334 466.90000000002334 486.90000000002334 506.90000000002334 526.9000000000234 546.9000000000234 566.9000000000233 586.9000000000233 606.9000000000233 626.9000000000233 646.9000000000233 666.9000000000233 686.9000000000233 706.9000000000232 726.9000000000232 746.9000000000232 766.9000000000232 786.9000000000232 806.9000000000232 826.9000000000232 846.9000000000232 866.9000000000232 886.9000000000232 906.9000000000232 926.9000000000232 946.9000000000232 966.9000000000232 986.9000000000232 1006.9000000000232 1026.9000000000233 1046.9000000000233 1066.9000000000233 1086.9000000000233 1106.9000000000233 1126.9000000000233 1146.9000000000233 1166.9000000000233 1186.9000000000233 1206.9000000000233 1226.9000000000233 1246.9000000000233 1266.9000000000233 1286.9000000000233 1306.9000000000233 1326.9000000000233 1346.9000000000233 1366.9000000000233 1386.9000000000233 1406.9000000000233 1426.9000000000233 1446.9000000000233 1466.9000000000233 1486.9000000000233 1506.9000000000233 1526.9000000000233 1546.9000000000233 1566.9000000000233 1586.9000000000233 1606.9000000000233 1626.9000000000233 1646.9000000000233 1666.9000000000233 1686.9000000000233 1706.9000000000233
cb_08,30.0,enc_trial,stim,response,Fine Arts students,867.7000000238478,enc_trial,1.0,30.0,s_sh_09_2,student_shared,fold-c,paper clips,8.0,competing,far,paired,s_sh_09_2.jpg,,student-b1,STEM students,Fine Arts students,sub-12,0.0,0.0,0.0,0.0,0.514453125 0.515234375 0.526171875 0.534765625 0.547265625 0.551953125 0.559765625 0.563671875 0.562890625 0.558984375 0.546484375 0.544921875 0.552734375 0.567578125 0.605078125 0.653515625 0.680078125 0.701953125 0.726171875 0.737890625 0.750390625 0.755078125 0.765234375 0.783203125 0.800390625 0.813671875 0.823046875 0.825390625 0.829296875 0.834765625 0.848046875 0.857421875 0.858984375,0.7916666666666666 0.7885416666666667 0.7739583333333333 0.7583333333333333 0.7364583333333333 0.7239583333333333 0.7 0.6770833333333333 0.6572916666666666 0.6291666666666667 0.5833333333333333 0.553125 0.5177083333333333 0.4979166666666667 0.45625 0.4 0.3666666666666667 0.3354166666666667 0.30000000000000004 0.2833333333333333 0.26979166666666665 0.2614583333333333 0.2458333333333333 0.225 0.2114583333333333 0.20104166666666667 0.196875 0.1947916666666667 0.19166666666666665 0.18541666666666667 0.17500000000000004 0.16979166666666667 0.16874999999999996,194.5 214.5 234.5 254.5 274.5 294.5 314.5 334.5 354.5 374.5 394.5 414.5 434.5 454.5 474.5 494.5 514.5 534.5 554.5 574.5 594.5 614.5 634.5 654.5 674.5 694.5 714.5 734.5 754.5 774.5 794.5 814.5 834.5
cb_08,31.0,enc_trial,stim,response,STEM students,1083.2000000476835,enc_trial,1.0,31.0,s_sh_23_1,student_shared,fold-a,ballpoint pen,8.0,competing,close,paired,s_sh_23_1.jpg,,student-b1,STEM students,Fine Arts students,sub-12,1.0,1.0,1.0,1.0,0.513671875 0.513671875 0.513671875 0.513671875 0.512890625 0.508984375 0.507421875 0.511328125 0.523828125 0.533203125 0.538671875 0.540234375 0.535546875 0.527734375 0.526953125 0.535546875 0.564453125 0.587109375 0.604296875 0.612890625 0.612109375 0.603515625 0.585546875 0.568359375 0.516796875 0.444140625 0.355078125 0.217578125 0.158984375 0.133203125 0.132421875 0.130859375 0.130859375 0.132421875 0.134765625 0.137890625 0.140234375 0.139453125 0.137890625 0.137109375 0.137109375 0.137890625 0.140234375 0.142578125 0.145703125 0.153515625 0.159765625 0.164453125 0.164453125 0.164453125 0.164453125 0.163671875 0.163671875,0.8 0.7979166666666666 0.7916666666666666 0.7833333333333333 0.7666666666666666 0.740625 0.7104166666666667 0.6833333333333333 0.6395833333333334 0.6104166666666666 0.5854166666666667 0.559375 0.5354166666666667 0.509375 0.49375 0.48125 0.4541666666666667 0.434375 0.4166666666666666 0.4 0.3916666666666667 0.375 0.3583333333333333 0.34791666666666665 0.321875 0.2979166666666667 0.275 0.2614583333333333 0.25520833333333337 0.25 0.2489583333333333 0.2479166666666667 0.2427083333333333 0.2395833333333333 0.2333333333333333 0.22187500000000004 0.215625 0.20520833333333333 0.1958333333333333 0.1927083333333333 0.18645833333333328 0.1802083333333333 0.17500000000000004 0.16979166666666667 0.1645833333333333 0.15833333333333333 0.15520833333333328 0.15416666666666667 0.15416666666666667 0.15416666666666667 0.15208333333333335 0.15000000000000002 0.1489583333333333,20.89999999999418 40.89999999999418 60.89999999999418 80.8999999999942 100.89999999999418 120.89999999999418 140.89999999999418 160.89999999999418 180.89999999999415 200.89999999999415 220.89999999999415 240.89999999999415 260.8999999999942 280.8999999999942 300.8999999999942 320.8999999999942 340.8999999999942 360.8999999999942 380.8999999999942 400.8999999999942 420.8999999999942 440.8999999999942 460.8999999999942 480.8999999999942 500.8999999999942 520.8999999999942 540.8999999999942 560.8999999999942 580.8999999999943 600.8999999999943 620.8999999999943 640.8999999999943 660.8999999999943 680.8999999999943 700.8999999999942 720.8999999999942 740.8999999999942 760.8999999999942 780.8999999999942 800.8999999999942 820.8999999999942 840.8999999999942 860.8999999999942 880.8999999999942 900.8999999999942 920.8999999999942 940.8999999999942 960.8999999999942 980.8999999999942 1000.8999999999942 1020.8999999999942 1040.8999999999942 1060.8999999999942
cb_08,32.0,enc_trial,stim,response,Fine Arts students,833.3999999999942,enc_trial,1.0,32.0,s_a_12_1,student_art,fold-c,saxophone,8.0,unique,far,paired,s_a_12_1.jpg,art,student-b1,STEM students,Fine Arts students,sub-12,1.0,1.0,1.0,1.0,0.519140625 0.524609375 0.526953125 0.526171875 0.517578125 0.511328125 0.505859375 0.508984375 0.512890625 0.516015625 0.519140625 0.517578125 0.516015625 0.514453125 0.508984375 0.508984375 0.508984375 0.508984375 0.508984375 0.508984375 0.508984375 0.510546875 0.533203125 0.580078125 0.604296875 0.619921875 0.628515625 0.641796875 0.669140625 0.692578125 0.729296875 0.766015625 0.794921875 0.841015625 0.851953125 0.876171875 0.882421875 0.883984375 0.883984375 0.884765625,0.7791666666666667 0.7677083333333333 0.75 0.7354166666666666 0.7041666666666666 0.68125 0.6427083333333333 0.6010416666666667 0.571875 0.546875 0.5197916666666667 0.5041666666666667 0.4895833333333334 0.4833333333333333 0.478125 0.478125 0.478125 0.478125 0.478125 0.478125 0.478125 0.4802083333333334 0.4708333333333333 0.43333333333333335 0.403125 0.3729166666666667 0.3447916666666667 0.31770833333333337 0.29375 0.2791666666666667 0.2583333333333333 0.2322916666666667 0.2125 0.18645833333333328 0.1802083333333333 0.171875 0.17083333333333328 0.16979166666666667 0.16979166666666667 0.16666666666666666,7.0 27.0 47.0 67.0 87.0 107.0 127.0 147.0 167.0 187.0 207.0 227.0 247.0 267.0 287.0 307.0 327.0 347.0 367.0 387.0 407.0 427.0 447.0 467.0 487.0 507.0 527.0 547.0 567.0 587.0 607.0 627.0 647.0 667.0 687.0 707.0 727.0 747.0 767.0 787.0
cb_08,33.0,enc_trial,stim,response,STEM students,1114.4000000238302,enc_trial,1.0,33.0,s_sh_16_2,student_shared,fold-a,stapler,8.0,competing,close,paired,s_sh_16_2.jpg,,student-b1,STEM students,Fine Arts students,sub-12,1.0,1.0,0.0,1.0,0.497265625 0.506640625 0.537109375 0.562890625 0.589453125 0.598046875 0.591796875 0.573828125 0.560546875 0.544921875 0.521484375 0.503515625 0.473046875 0.455078125 0.445703125 0.448828125 0.451953125 0.452734375 0.452734375 0.452734375 0.452734375 0.455078125 0.470703125 0.514453125 0.573828125 0.634765625 0.641796875 0.630859375 0.584765625 0.527734375 0.441796875 0.394140625 0.352734375 0.340234375 0.339453125 0.337890625 0.333203125 0.326953125 0.298046875 0.260546875 0.219921875 0.208203125 0.208203125 0.207421875 0.206640625 0.206640625 0.204296875 0.204296875 0.202734375 0.201953125 0.200390625 0.190234375 0.173828125 0.161328125 0.157421875 0.156640625,0.7447916666666667 0.7229166666666667 0.6697916666666667 0.6260416666666666 0.575 0.55 0.5135416666666667 0.4760416666666667 0.453125 0.4354166666666667 0.41041666666666665 0.3927083333333333 0.3677083333333333 0.3572916666666667 0.35 0.35 0.35 0.35 0.35 0.35 0.35 0.35 0.3583333333333333 0.3447916666666667 0.309375 0.2322916666666667 0.2083333333333333 0.15520833333333328 0.12604166666666672 0.1166666666666667 0.11145833333333333 0.11145833333333333 0.11145833333333333 0.11145833333333333 0.11145833333333333 0.11145833333333333 0.11250000000000004 0.1166666666666667 0.1333333333333333 0.15104166666666666 0.16666666666666666 0.16979166666666667 0.16979166666666667 0.16979166666666667 0.16979166666666667 0.16979166666666667 0.16979166666666667 0.16979166666666667 0.16874999999999996 0.16562500000000002 0.16249999999999998 0.15416666666666667 0.14479166666666665 0.140625 0.13958333333333328 0.13958333333333328,0.0 20.0 40.0 60.0 80.0 100.0 120.0 140.0 160.0 180.0 200.0 220.0 240.0 260.0 280.0 300.0 320.0 340.0 360.0 380.0 400.0 420.0 440.0 460.0 480.0 500.0 520.0 540.0 560.0 580.0 600.0 620.0 640.0 660.0 680.0 700.0 720.0 740.0 760.0 780.0 800.0 820.0 840.0 860.0 880.0 900.0 920.0 940.0 960.0 980.0 1000.0 1020.0 1040.0 1060.0 1080.0 1100.0
cb_08,34.0,enc_trial,stim,response,Fine Arts students,1087.7999999999884,enc_trial,1.0,34.0,s_sh_23_2,student_shared,fold-a,ballpoint pen,8.0,competing,close,paired,s_sh_23_2.jpg,,student-b1,STEM students,Fine Arts students,sub-12,1.0,1.0,1.0,1.0,0.533203125 0.538671875 0.543359375 0.545703125 0.545703125 0.552734375 0.564453125 0.594140625 0.632421875 0.643359375 0.670703125 0.681640625 0.680078125 0.662890625 0.641015625 0.583984375 0.530859375 0.521484375 0.512109375 0.523046875 0.543359375 0.576953125 0.587109375 0.591796875 0.595703125 0.599609375 0.636328125 0.687890625 0.703515625 0.705859375 0.705859375 0.715234375 0.758984375 0.795703125 0.818359375 0.825390625 0.826953125 0.824609375 0.812109375 0.791796875 0.775390625 0.773046875 0.773046875 0.773046875 0.772265625 0.774609375 0.779296875 0.791015625 0.805078125 0.826953125 0.836328125 0.844921875 0.852734375 0.855859375,0.7916666666666666 0.7885416666666667 0.7802083333333334 0.7677083333333333 0.7552083333333334 0.7208333333333333 0.6895833333333333 0.6354166666666667 0.571875 0.5489583333333333 0.4864583333333333 0.4395833333333333 0.409375 0.365625 0.3354166666666667 0.28645833333333337 0.2510416666666667 0.2416666666666667 0.2270833333333333 0.2083333333333333 0.19166666666666665 0.16979166666666667 0.15729166666666672 0.14687499999999998 0.13749999999999996 0.1322916666666667 0.11354166666666665 0.09791666666666664 0.09375 0.09375 0.09375 0.09791666666666664 0.11250000000000004 0.1177083333333333 0.12083333333333335 0.12083333333333335 0.12187499999999996 0.12395833333333328 0.125 0.13020833333333334 0.13437500000000002 0.13541666666666666 0.13541666666666666 0.13541666666666666 0.13749999999999996 0.13749999999999996 0.13749999999999996 0.13749999999999996 0.13749999999999996 0.13749999999999996 0.13749999999999996 0.13749999999999996 0.13749999999999996 0.13749999999999996,0.0 20.0 40.0 60.0 80.0 100.0 120.0 140.0 160.0 180.0 200.0 220.0 240.0 260.0 280.0 300.0 320.0 340.0 360.0 380.0 400.0 420.0 440.0 460.0 480.0 500.0 520.0 540.0 560.0 580.0 600.0 620.0 640.0 660.0 680.0 700.0 720.0 740.0 760.0 780.0 800.0 820.0 840.0 860.0 880.0 900.0 920.0 940.0 960.0 980.0 1000.0 1020.0 1040.0 1060.0
