trial_num,Response,Reaction Time,display,stimulus_id,c_group,condition,within_block_dist,paired_status,stimulus_path,sub_label,enc_pair_acc,assoc_item_acc,assoc_both_acc,x_pos,y_pos,time_trajectories
1.0,Miami trip,1881.3999999821167,assoc_trial,t_m_13_1,10.0,unique,,single,t_m_13_1.jpg,sub-101,0.0,1.0,,0.5205078125 0.5205078125 0.5205078125 0.5205078125 0.5205078125 0.5205078125 0.5205078125 0.5205078125 0.5205078125 0.51953125 0.51953125 0.5185546875 0.5185546875 0.5185546875 0.517578125 0.5166015625 0.515625 0.5146484375 0.513671875 0.5126953125 0.505859375 0.5 0.4921875 0.4814453125 0.4677734375 0.4345703125 0.4208984375 0.40234375 0.3828125 0.3671875 0.3486328125 0.34375 0.341796875 0.341796875 0.341796875 0.341796875 0.341796875 0.3447265625 0.3935546875 0.4892578125 0.544921875 0.580078125 0.5986328125 0.6064453125 0.623046875 0.6865234375 0.7275390625 0.7587890625 0.779296875 0.8076171875 0.814453125 0.8173828125 0.8173828125 0.8173828125 0.8173828125 0.8173828125 0.814453125 0.8046875 0.7861328125 0.697265625 0.6396484375 0.5947265625 0.57421875 0.5693359375 0.5703125 0.5791015625 0.619140625 0.673828125 0.7373046875 0.8154296875 0.830078125 0.8359375 0.837890625 0.853515625 0.8583984375 0.859375 0.8603515625 0.8603515625 0.8603515625 0.8603515625 0.8623046875 0.86328125,0.828125 0.828125 0.828125 0.828125 0.828125 0.8268229166666666 0.8255208333333334 0.8255208333333334 0.8255208333333334 0.82421875 0.82421875 0.8216145833333334 0.8216145833333334 0.8216145833333334 0.8203125 0.8177083333333334 0.81640625 0.81640625 0.8151041666666666 0.8138020833333334 0.8046875 0.7981770833333334 0.7864583333333334 0.7604166666666666 0.7252604166666667 0.6302083333333333 0.5872395833333333 0.53125 0.4739583333333334 0.4283854166666666 0.375 0.36067708333333337 0.3515625 0.34895833333333337 0.34765625 0.34765625 0.34635416666666663 0.34244791666666663 0.32552083333333337 0.30338541666666663 0.29296875 0.28645833333333337 0.27864583333333337 0.27604166666666663 0.26041666666666663 0.21744791666666666 0.19921875 0.19010416666666666 0.18619791666666666 0.18619791666666666 0.18619791666666666 0.18619791666666666 0.18619791666666666 0.18619791666666666 0.18619791666666666 0.18619791666666666 0.1848958333333333 0.18359375 0.1809895833333333 0.1809895833333333 0.17708333333333334 0.16145833333333334 0.14713541666666666 0.13802083333333334 0.13541666666666666 0.13541666666666666 0.13541666666666666 0.12890625 0.11848958333333336 0.11848958333333336 0.11979166666666664 0.12239583333333336 0.125 0.13541666666666666 0.13671875 0.13671875 0.13802083333333334 0.13802083333333334 0.13802083333333334 0.13802083333333334 0.13802083333333334 0.13802083333333334,182.40000000000146 202.40000000000146 222.40000000000146 242.40000000000146 262.40000000000146 282.40000000000146 302.40000000000146 322.40000000000146 342.40000000000146 362.4000000000015 382.4000000000015 402.4000000000015 422.4000000000015 442.4000000000015 462.4000000000015 482.4000000000015 502.4000000000015 522.4000000000016 542.4000000000016 562.4000000000016 582.4000000000016 602.4000000000016 622.4000000000016 642.4000000000016 662.4000000000016 682.4000000000016 702.4000000000016 722.4000000000016 742.4000000000016 762.4000000000016 782.4000000000016 802.4000000000016 822.4000000000016 842.4000000000016 862.4000000000016 882.4000000000016 902.4000000000017 922.4000000000017 942.4000000000017 962.4000000000017 982.4000000000017 1002.4000000000017 1022.4000000000017 1042.4000000000017 1062.4000000000017 1082.4000000000017 1102.4000000000017 1122.4000000000017 1142.4000000000015 1162.4000000000015 1182.4000000000015 1202.4000000000015 1222.4000000000015 1242.4000000000015 1262.4000000000015 1282.4000000000015 1302.4000000000015 1322.4000000000015 1342.4000000000015 1362.4000000000015 1382.4000000000015 1402.4000000000015 1422.4000000000015 1442.4000000000015 1462.4000000000015 1482.4000000000015 1502.4000000000015 1522.4000000000015 1542.4000000000015 1562.4000000000015 1582.4000000000015 1602.4000000000015 1622.4000000000015 1642.4000000000015 1662.4000000000015 1682.4000000000015 1702.4000000000015 1722.4000000000015 1742.4000000000015 1762.4000000000015 1782.4000000000015 1802.4000000000012
2.0,Iceland trip,1340.3000000000031,assoc_trial,t_i_10_2,10.0,unique,far,paired,t_i_10_2.jpg,sub-101,1.0,1.0,1.0,0.48828125 0.458984375 0.4248046875 0.3994140625 0.3447265625 0.22265625 0.203125 0.1923828125 0.189453125 0.189453125 0.189453125 0.189453125 0.189453125 0.189453125 0.189453125 0.189453125 0.189453125 0.189453125 0.189453125 0.189453125 0.189453125 0.189453125 0.189453125 0.1875 0.185546875 0.18359375 0.1826171875 0.181640625 0.1806640625 0.1806640625 0.1796875,0.8111979166666666 0.7604166666666666 0.6953125 0.6497395833333333 0.5494791666666667 0.33723958333333337 0.29817708333333337 0.27734375 0.26822916666666663 0.26692708333333337 0.26692708333333337 0.26692708333333337 0.26692708333333337 0.26692708333333337 0.26692708333333337 0.26692708333333337 0.26692708333333337 0.26692708333333337 0.26692708333333337 0.265625 0.23828125 0.2200520833333333 0.2005208333333333 0.1888020833333333 0.17708333333333334 0.16927083333333334 0.1640625 0.16145833333333334 0.15885416666666666 0.15885416666666666 0.15885416666666666,696.8000000000029 716.8000000000029 736.8000000000029 756.8000000000029 776.8000000000029 796.8000000000029 816.8000000000029 836.8000000000029 856.8000000000029 876.8000000000029 896.8000000000029 916.8000000000028 936.8000000000028 956.8000000000028 976.8000000000028 996.8000000000028 1016.8000000000028 1036.8000000000031 1056.8000000000031 1076.8000000000031 1096.8000000000031 1116.8000000000031 1136.8000000000031 1156.8000000000031 1176.8000000000031 1196.8000000000031 1216.8000000000031 1236.8000000000031 1256.8000000000031 1276.8000000000031 1296.8000000000031
3.0,Iceland trip,1539.5999999880805,assoc_trial,t_s_09_2,10.0,competing,close,paired,t_s_09_2.jpg,sub-101,1.0,0.0,0.0,0.494140625 0.486328125 0.4775390625 0.4638671875 0.44921875 0.4072265625 0.3857421875 0.361328125 0.341796875 0.3154296875 0.302734375 0.2822265625 0.2705078125 0.2578125 0.2431640625 0.2099609375 0.1962890625 0.185546875 0.1826171875 0.1826171875 0.1826171875 0.1826171875 0.1826171875 0.1826171875 0.1826171875 0.1826171875 0.1806640625 0.1787109375 0.177734375 0.1767578125,0.8190104166666666 0.80859375 0.7942708333333334 0.7682291666666666 0.7317708333333333 0.6171875 0.5481770833333333 0.4739583333333334 0.4166666666666666 0.35026041666666663 0.31901041666666663 0.27213541666666663 0.25 0.2278645833333333 0.19791666666666666 0.140625 0.11458333333333336 0.09765625 0.09114583333333336 0.09114583333333336 0.09114583333333336 0.09114583333333336 0.09114583333333336 0.09114583333333336 0.09114583333333336 0.09505208333333336 0.09895833333333336 0.10286458333333336 0.10416666666666664 0.10546875,945.0 965.0 985.0 1005.0 1025.0 1045.0 1065.0 1085.0 1105.0 1125.0 1145.0 1165.0 1185.0 1205.0 1225.0 1245.0 1265.0 1285.0 1305.0 1325.0 1345.0 1365.0 1385.0 1405.0 1425.0 1445.0 1465.0 1485.0 1505.0 1525.0
4.0,Miami trip,1110.8999999999796,assoc_trial,t_s_21_2,10.0,competing,close,paired,t_s_21_2.jpg,sub-101,0.0,1.0,1.0,0.498046875 0.5078125 0.5458984375 0.6181640625 0.751953125 0.826171875 0.888671875 0.892578125 0.892578125 0.892578125 0.8876953125 0.8857421875 0.884765625 0.8837890625,0.80078125 0.7838541666666666 0.7278645833333333 0.6341145833333333 0.4635416666666666 0.3515625 0.2434895833333333 0.2265625 0.21875 0.21354166666666666 0.20182291666666666 0.19791666666666666 0.1966145833333333 0.1953125,713.0 733.0 753.0 773.0 793.0 813.0 833.0 853.0 873.0 893.0 913.0 933.0 953.0 973.0
5.0,Miami trip,1407.1999999999966,assoc_trial,t_s_19_1,10.0,competing,,single,t_s_19_1.jpg,sub-101,1.0,0.0,,0.4892578125 0.48828125 0.486328125 0.486328125 0.486328125 0.56640625 0.658203125 0.7568359375 0.849609375 0.9169921875 0.9580078125 0.9580078125 0.9580078125 0.9580078125 0.9580078125 0.95703125 0.9560546875 0.955078125 0.955078125 0.9541015625 0.9521484375 0.951171875 0.9462890625 0.94140625 0.9287109375 0.91015625 0.8984375 0.888671875 0.87890625 0.8623046875 0.859375 0.8583984375 0.8564453125 0.8564453125 0.85546875,0.8255208333333334 0.8216145833333334 0.8098958333333334 0.78515625 0.7434895833333333 0.6041666666666667 0.4973958333333334 0.3658854166666666 0.24479166666666666 0.15234375 0.09505208333333336 0.09375 0.09375 0.09375 0.09375 0.09375 0.09375 0.09505208333333336 0.09505208333333336 0.09635416666666664 0.09765625 0.10026041666666664 0.10286458333333336 0.10677083333333336 0.11588541666666664 0.12630208333333334 0.13151041666666666 0.13411458333333334 0.13802083333333334 0.14322916666666666 0.14322916666666666 0.14322916666666666 0.14322916666666666 0.14322916666666666 0.14322916666666666,630.6999999999971 650.6999999999971 670.6999999999971 690.6999999999971 710.6999999999971 730.6999999999971 750.6999999999971 770.6999999999971 790.6999999999971 810.6999999999971 830.6999999999971 850.6999999999971 870.6999999999971 890.6999999999971 910.6999999999972 930.6999999999972 950.6999999999972 970.6999999999972 990.6999999999972 1010.6999999999972 1030.6999999999969 1050.6999999999969 1070.6999999999969 1090.6999999999969 1110.6999999999969 1130.6999999999969 1150.6999999999969 1170.6999999999969 1190.6999999999969 1210.6999999999969 1230.6999999999969 1250.6999999999969 1270.6999999999969 1290.6999999999969 1310.6999999999969
6.0,Miami trip,1458.900000000009,assoc_trial,t_m_07_2,10.0,unique,close,paired,t_m_07_2.jpg,sub-101,1.0,1.0,1.0,0.5048828125 0.50390625 0.50390625 0.5029296875 0.501953125 0.5 0.4970703125 0.494140625 0.490234375 0.4853515625 0.470703125 0.4638671875 0.4501953125 0.4228515625 0.4052734375 0.3740234375 0.3623046875 0.3525390625 0.345703125 0.34375 0.373046875 0.4326171875 0.5458984375 0.6787109375 0.9013671875 0.9326171875 0.939453125 0.9404296875 0.9404296875 0.935546875 0.9306640625 0.927734375 0.92578125 0.923828125 0.923828125 0.923828125 0.923828125 0.9208984375 0.9169921875 0.904296875 0.9033203125 0.8994140625 0.89453125 0.892578125 0.888671875,0.8463541666666666 0.8450520833333334 0.8450520833333334 0.84375 0.8424479166666666 0.8372395833333334 0.83203125 0.82421875 0.8125 0.7981770833333334 0.75390625 0.7213541666666667 0.6809895833333333 0.5950520833333333 0.5390625 0.4401041666666666 0.40755208333333337 0.37630208333333337 0.34505208333333337 0.31901041666666663 0.2890625 0.29427083333333337 0.33203125 0.3619791666666666 0.390625 0.3854166666666666 0.38020833333333337 0.3697916666666666 0.35026041666666663 0.30338541666666663 0.28125 0.26692708333333337 0.25651041666666663 0.25130208333333337 0.25130208333333337 0.25130208333333337 0.24869791666666666 0.2434895833333333 0.23828125 0.2083333333333333 0.20572916666666666 0.1953125 0.18619791666666666 0.1796875 0.17057291666666666,564.5 584.5 604.5 624.5 644.5 664.5 684.5 704.5 724.5 744.5 764.5 784.5 804.5 824.5 844.5 864.5 884.5 904.5 924.5 944.5 964.5 984.5 1004.5 1024.5 1044.5 1064.5 1084.5 1104.5 1124.5 1144.5 1164.5 1184.5 1204.5 1224.5 1244.5 1264.5 1284.5 1304.5 1324.5 1344.5 1364.5 1384.5 1404.5 1424.5 1444.5
7.0,Iceland trip,1272.0000000059665,assoc_trial,t_i_01_1,10.0,unique,,single,t_i_01_1.jpg,sub-101,1.0,1.0,,0.4951171875 0.4794921875 0.4404296875 0.396484375 0.322265625 0.2783203125 0.2509765625 0.25 0.25 0.25 0.25 0.25 0.25 0.25 0.25 0.2431640625 0.2353515625 0.2236328125 0.2099609375 0.1748046875 0.1552734375 0.1552734375 0.1552734375 0.1552734375 0.154296875,0.8203125 0.7864583333333334 0.7083333333333333 0.6106770833333333 0.45703125 0.3658854166666666 0.26692708333333337 0.24609375 0.2356770833333333 0.2317708333333333 0.2317708333333333 0.2317708333333333 0.2317708333333333 0.2317708333333333 0.2317708333333333 0.2265625 0.2265625 0.2239583333333333 0.21875 0.1927083333333333 0.17578125 0.17578125 0.17578125 0.17578125 0.17317708333333334,713.2000000000116 733.2000000000116 753.2000000000116 773.2000000000116 793.2000000000116 813.2000000000116 833.2000000000116 853.2000000000116 873.2000000000116 893.2000000000116 913.2000000000116 933.2000000000116 953.2000000000116 973.2000000000116 993.2000000000116 1013.2000000000116 1033.2000000000116 1053.2000000000116 1073.2000000000116 1093.2000000000116 1113.2000000000116 1133.2000000000114 1153.2000000000114 1173.2000000000114 1193.2000000000114
8.0,Miami trip,1774.9999999999854,assoc_trial,t_m_03_2,10.0,unique,close,paired,t_m_03_2.jpg,sub-101,1.0,1.0,0.0,0.4814453125 0.4814453125 0.4814453125 0.4814453125 0.482421875 0.482421875 0.484375 0.486328125 0.490234375 0.5009765625 0.5361328125 0.552734375 0.5703125 0.5859375 0.59765625 0.6083984375 0.609375 0.609375 0.609375 0.609375 0.6064453125 0.5908203125 0.52734375 0.447265625 0.3525390625 0.224609375 0.1982421875 0.193359375 0.1953125 0.234375 0.28515625 0.3583984375 0.4482421875 0.5302734375 0.6396484375 0.708984375 0.72265625 0.7314453125 0.7353515625 0.7421875 0.74609375 0.748046875 0.751953125 0.7587890625 0.7734375 0.7783203125 0.78125 0.7900390625 0.806640625 0.8505859375 0.8681640625 0.8798828125 0.8857421875 0.888671875 0.8896484375 0.8896484375 0.8896484375 0.8896484375 0.8896484375 0.8896484375 0.8896484375 0.8896484375 0.8896484375 0.8896484375 0.8896484375 0.8896484375,0.83203125 0.83203125 0.83203125 0.83203125 0.83203125 0.83203125 0.83203125 0.83203125 0.8307291666666666 0.8294270833333334 0.8229166666666666 0.8216145833333334 0.8216145833333334 0.8216145833333334 0.8216145833333334 0.8216145833333334 0.8216145833333334 0.8216145833333334 0.8216145833333334 0.8216145833333334 0.8190104166666666 0.8072916666666666 0.7421875 0.66015625 0.5533854166666667 0.390625 0.33984375 0.3203125 0.30989583333333337 0.30729166666666663 0.30859375 0.31770833333333337 0.31770833333333337 0.31770833333333337 0.30598958333333337 0.2890625 0.28255208333333337 0.27734375 0.2734375 0.26041666666666663 0.25390625 0.24869791666666666 0.2434895833333333 0.23828125 0.22916666666666666 0.2239583333333333 0.22135416666666666 0.21484375 0.20182291666666666 0.17578125 0.16536458333333334 0.15494791666666666 0.14973958333333334 0.14713541666666666 0.14453125 0.14453125 0.14322916666666666 0.14322916666666666 0.14322916666666666 0.14322916666666666 0.14322916666666666 0.14322916666666666 0.14322916666666666 0.14322916666666666 0.14322916666666666 0.14192708333333334,264.6999999999971 284.69999999999715 304.69999999999715 324.69999999999715 344.6999999999971 364.6999999999971 384.6999999999971 404.6999999999971 424.6999999999971 444.6999999999971 464.6999999999971 484.6999999999971 504.6999999999971 524.6999999999971 544.6999999999971 564.6999999999971 584.6999999999971 604.6999999999971 624.6999999999971 644.6999999999971 664.6999999999971 684.6999999999971 704.6999999999971 724.6999999999971 744.6999999999971 764.6999999999971 784.6999999999971 804.6999999999971 824.6999999999971 844.6999999999971 864.6999999999971 884.6999999999971 904.6999999999972 924.6999999999972 944.6999999999972 964.6999999999972 984.6999999999972 1004.6999999999972 1024.6999999999969 1044.6999999999969 1064.6999999999969 1084.6999999999969 1104.6999999999969 1124.6999999999969 1144.6999999999969 1164.6999999999969 1184.6999999999969 1204.6999999999969 1224.6999999999969 1244.6999999999969 1264.6999999999969 1284.6999999999969 1304.6999999999969 1324.6999999999969 1344.6999999999969 1364.6999999999969 1384.6999999999969 1404.6999999999969 1424.6999999999969 1444.6999999999969 1464.6999999999969 1484.6999999999969 1504.6999999999969 1524.6999999999969 1544.6999999999969 1564.6999999999969
9.0,Iceland trip,1440.5000000059665,assoc_trial,t_s_08_2,10.0,competing,far,paired,t_s_08_2.jpg,sub-101,1.0,1.0,0.0,0.4921875 0.4892578125 0.4677734375 0.4521484375 0.404296875 0.2529296875 0.16796875 0.099609375 0.0537109375 0.03515625 0.03125 0.03125 0.0341796875 0.0390625 0.0458984375 0.0546875 0.0576171875 0.0595703125 0.060546875 0.0625 0.064453125 0.06640625 0.0693359375 0.0712890625 0.0751953125 0.076171875 0.0771484375 0.078125 0.080078125 0.0810546875 0.08203125 0.08203125 0.083984375 0.083984375 0.083984375 0.083984375 0.083984375 0.083984375 0.083984375 0.083984375 0.083984375 0.0849609375 0.0859375 0.0869140625 0.087890625,0.7994791666666666 0.796875 0.765625 0.7408854166666667 0.6666666666666667 0.44140625 0.328125 0.2317708333333333 0.16276041666666666 0.13151041666666666 0.12239583333333336 0.12239583333333336 0.12239583333333336 0.12239583333333336 0.12239583333333336 0.125 0.12630208333333334 0.12760416666666666 0.12760416666666666 0.12760416666666666 0.12760416666666666 0.12630208333333334 0.12239583333333336 0.11848958333333336 0.109375 0.10677083333333336 0.10546875 0.10286458333333336 0.1015625 0.09895833333333336 0.09765625 0.09765625 0.09765625 0.09765625 0.09765625 0.09765625 0.09765625 0.09765625 0.09765625 0.09765625 0.09765625 0.09765625 0.09765625 0.09765625 0.09765625,547.9000000000087 567.9000000000087 587.9000000000087 607.9000000000087 627.9000000000087 647.9000000000087 667.9000000000087 687.9000000000087 707.9000000000087 727.9000000000087 747.9000000000087 767.9000000000087 787.9000000000087 807.9000000000087 827.9000000000087 847.9000000000087 867.9000000000087 887.9000000000087 907.9000000000087 927.9000000000087 947.9000000000087 967.9000000000087 987.9000000000087 1007.9000000000087 1027.9000000000087 1047.9000000000087 1067.9000000000087 1087.9000000000087 1107.9000000000087 1127.9000000000087 1147.9000000000087 1167.9000000000087 1187.9000000000087 1207.9000000000087 1227.9000000000087 1247.9000000000087 1267.9000000000087 1287.9000000000087 1307.9000000000087 1327.9000000000087 1347.9000000000087 1367.9000000000087 1387.900000000009 1407.900000000009 1427.900000000009
10.0,Iceland trip,1233.5999999940395,assoc_trial,t_i_11_1,10.0,unique,,single,t_i_11_1.jpg,sub-101,1.0,1.0,,0.484375 0.474609375 0.474609375 0.4697265625 0.4541015625 0.3984375 0.36328125 0.3251953125 0.2958984375 0.255859375 0.2431640625 0.212890625 0.2060546875 0.201171875 0.1953125 0.1875 0.185546875 0.18359375 0.1826171875 0.1806640625 0.1689453125 0.1640625 0.1572265625 0.150390625 0.142578125 0.126953125 0.12109375 0.1201171875,0.7981770833333334 0.7825520833333334 0.7825520833333334 0.7747395833333334 0.7486979166666667 0.6471354166666667 0.5729166666666667 0.4921875 0.4205729166666666 0.32682291666666663 0.3046875 0.2395833333333333 0.22526041666666666 0.21354166666666666 0.20182291666666666 0.1875 0.18229166666666666 0.1796875 0.17838541666666666 0.17447916666666666 0.15885416666666666 0.15364583333333334 0.14713541666666666 0.14192708333333334 0.13541666666666666 0.12630208333333334 0.125 0.125,630.8000000000029 650.8000000000029 670.8000000000029 690.8000000000029 710.8000000000029 730.8000000000029 750.8000000000029 770.8000000000029 790.8000000000029 810.8000000000029 830.8000000000029 850.8000000000029 870.8000000000029 890.8000000000029 910.8000000000028 930.8000000000028 950.8000000000028 970.8000000000028 990.8000000000028 1010.8000000000028 1030.8000000000031 1050.8000000000031 1070.8000000000031 1090.8000000000031 1110.8000000000031 1130.8000000000031 1150.8000000000031 1170.8000000000031
11.0,Iceland trip,1219.8999999880764,assoc_trial,t_s_18_1,10.0,competing,far,paired,t_s_18_1.jpg,sub-101,1.0,1.0,0.0,0.5048828125 0.509765625 0.513671875 0.5166015625 0.517578125 0.5185546875 0.5185546875 0.5185546875 0.5185546875 0.5185546875 0.5185546875 0.5185546875 0.5185546875 0.5224609375 0.533203125 0.5517578125 0.564453125 0.576171875 0.5869140625 0.5966796875 0.60546875 0.60546875 0.60546875 0.60546875 0.60546875 0.58984375 0.55078125 0.4921875 0.431640625 0.3134765625 0.2685546875 0.22265625 0.208984375 0.2041015625 0.201171875 0.19921875 0.19921875 0.1982421875 0.197265625 0.1953125 0.1943359375 0.19140625 0.1875 0.181640625 0.1796875 0.1767578125 0.17578125 0.17578125 0.173828125 0.1708984375 0.1689453125 0.1669921875 0.1650390625 0.1640625 0.1630859375,0.82421875 0.82421875 0.82421875 0.82421875 0.82421875 0.82421875 0.82421875 0.82421875 0.82421875 0.82421875 0.82421875 0.82421875 0.82421875 0.82421875 0.82421875 0.82421875 0.82421875 0.82421875 0.82421875 0.82421875 0.8268229166666666 0.8268229166666666 0.8268229166666666 0.8268229166666666 0.8268229166666666 0.8268229166666666 0.8098958333333334 0.76953125 0.703125 0.5221354166666667 0.4296875 0.33463541666666663 0.30338541666666663 0.28515625 0.27083333333333337 0.25911458333333337 0.25520833333333337 0.25260416666666663 0.24869791666666666 0.2434895833333333 0.23828125 0.23046875 0.22135416666666666 0.2083333333333333 0.203125 0.1953125 0.1927083333333333 0.1888020833333333 0.18619791666666666 0.1796875 0.17578125 0.17447916666666666 0.171875 0.17057291666666666 0.17057291666666666,132.0999999999913 152.09999999999133 172.0999999999913 192.0999999999913 212.0999999999913 232.0999999999913 252.0999999999913 272.09999999999127 292.09999999999127 312.09999999999127 332.09999999999127 352.0999999999912 372.0999999999912 392.0999999999912 412.0999999999912 432.0999999999912 452.0999999999912 472.0999999999912 492.0999999999912 512.0999999999913 532.0999999999913 552.0999999999913 572.0999999999913 592.0999999999913 612.0999999999913 632.0999999999913 652.0999999999913 672.0999999999913 692.0999999999913 712.0999999999913 732.0999999999913 752.0999999999913 772.0999999999913 792.0999999999913 812.0999999999913 832.0999999999913 852.0999999999913 872.0999999999913 892.0999999999913 912.0999999999913 932.0999999999913 952.0999999999913 972.0999999999913 992.0999999999913 1012.0999999999913 1032.0999999999913 1052.0999999999913 1072.0999999999913 1092.0999999999913 1112.0999999999913 1132.0999999999913 1152.0999999999913 1172.0999999999913 1192.0999999999913 1212.0999999999913
12.0,Iceland trip,1199.1000000000058,assoc_trial,t_s_04_1,10.0,competing,,single,t_s_04_1.jpg,sub-101,1.0,1.0,,0.4755859375 0.4453125 0.3916015625 0.3134765625 0.25 0.1435546875 0.0947265625 0.0869140625 0.0791015625 0.076171875 0.076171875 0.076171875 0.076171875 0.076171875 0.076171875 0.076171875 0.08203125 0.0849609375 0.0869140625 0.0888671875 0.0908203125,0.7760416666666666 0.7265625 0.6393229166666667 0.5130208333333333 0.40625 0.23828125 0.15494791666666666 0.13932291666666666 0.12109375 0.11328125 0.11197916666666664 0.11197916666666664 0.11197916666666664 0.11197916666666664 0.11197916666666664 0.11067708333333336 0.109375 0.10807291666666664 0.10807291666666664 0.10807291666666664 0.10677083333333336,745.5 765.5 785.5 805.5 825.5 845.5 865.5 885.5 905.5 925.5 945.5 965.5 985.5 1005.5 1025.5 1045.5 1065.5 1085.5 1105.5 1125.5 1145.5
13.0,Iceland trip,1443.599999999991,assoc_trial,t_s_07_2,10.0,competing,far,paired,t_s_07_2.jpg,sub-101,1.0,0.0,0.0,0.4833984375 0.486328125 0.4873046875 0.48828125 0.4892578125 0.4931640625 0.49609375 0.4990234375 0.5029296875 0.5048828125 0.5068359375 0.5068359375 0.5068359375 0.5068359375 0.5068359375 0.5068359375 0.501953125 0.4912109375 0.4814453125 0.4443359375 0.3271484375 0.2783203125 0.232421875 0.22265625 0.2177734375 0.2265625 0.234375 0.25390625 0.3125 0.4716796875 0.533203125 0.5869140625 0.6220703125 0.650390625 0.6572265625 0.6572265625 0.658203125 0.64453125 0.6064453125 0.494140625 0.4541015625 0.4287109375 0.412109375 0.4072265625 0.3896484375 0.3759765625 0.3583984375 0.333984375 0.3046875 0.2275390625 0.1923828125 0.1728515625 0.1640625 0.1630859375,0.8229166666666666 0.82421875 0.8255208333333334 0.8255208333333334 0.8268229166666666 0.828125 0.828125 0.8307291666666666 0.8307291666666666 0.8333333333333334 0.8346354166666666 0.8346354166666666 0.8346354166666666 0.8346354166666666 0.8346354166666666 0.8359375 0.8359375 0.8333333333333334 0.8268229166666666 0.7903645833333334 0.5963541666666667 0.46875 0.27994791666666663 0.1848958333333333 0.12239583333333336 0.09505208333333336 0.09505208333333336 0.10286458333333336 0.12630208333333334 0.17447916666666666 0.1875 0.19010416666666666 0.19010416666666666 0.19010416666666666 0.19010416666666666 0.19010416666666666 0.19010416666666666 0.1927083333333333 0.20182291666666666 0.20572916666666666 0.20182291666666666 0.19140625 0.1796875 0.17447916666666666 0.16145833333333334 0.15625 0.15364583333333334 0.15234375 0.15234375 0.15234375 0.15234375 0.14973958333333334 0.14322916666666666 0.14192708333333334,282.6000000000058 302.6000000000058 322.6000000000058 342.6000000000058 362.6000000000058 382.6000000000058 402.6000000000058 422.6000000000058 442.6000000000058 462.6000000000058 482.6000000000058 502.6000000000058 522.6000000000058 542.6000000000058 562.6000000000058 582.6000000000057 602.6000000000057 622.6000000000057 642.6000000000057 662.6000000000057 682.6000000000057 702.6000000000058 722.6000000000058 742.6000000000058 762.6000000000058 782.6000000000058 802.6000000000058 822.6000000000058 842.6000000000058 862.6000000000058 882.6000000000058 902.6000000000058 922.6000000000058 942.6000000000058 962.6000000000058 982.6000000000058 1002.6000000000058 1022.6000000000058 1042.6000000000058 1062.6000000000058 1082.6000000000058 1102.6000000000058 1122.6000000000058 1142.6000000000058 1162.6000000000058 1182.6000000000058 1202.6000000000058 1222.6000000000058 1242.6000000000058 1262.6000000000058 1282.6000000000058 1302.6000000000058 1322.6000000000058 1342.6000000000058
14.0,Iceland trip,1642.099999999991,assoc_trial,t_m_18_2,10.0,unique,far,paired,t_m_18_2.jpg,sub-101,1.0,0.0,0.0,0.4775390625 0.458984375 0.4345703125 0.4169921875 0.361328125 0.232421875 0.166015625 0.1142578125 0.0849609375 0.076171875 0.0751953125 0.0751953125 0.0751953125 0.0771484375 0.080078125 0.0908203125 0.09375 0.0966796875 0.0986328125 0.099609375 0.1005859375 0.1015625 0.1025390625 0.1044921875 0.1103515625 0.1171875 0.1220703125 0.1298828125 0.1337890625 0.1357421875 0.1357421875 0.13671875,0.8046875 0.7825520833333334 0.7434895833333333 0.71484375 0.62109375 0.38020833333333337 0.265625 0.17317708333333334 0.11328125 0.09114583333333336 0.08463541666666663 0.08463541666666663 0.08333333333333337 0.08333333333333337 0.08333333333333337 0.08463541666666663 0.0859375 0.08984375 0.08984375 0.09114583333333336 0.09244791666666664 0.09375 0.09505208333333336 0.09765625 0.10416666666666664 0.11197916666666664 0.1171875 0.12630208333333334 0.13020833333333334 0.13411458333333334 0.13411458333333334 0.13411458333333334,614.4000000000087 634.4000000000087 654.4000000000087 674.4000000000087 694.4000000000087 714.4000000000087 734.4000000000087 754.4000000000087 774.4000000000087 794.4000000000087 814.4000000000087 834.4000000000087 854.4000000000087 874.4000000000087 894.4000000000087 914.4000000000087 934.4000000000087 954.4000000000087 974.4000000000087 994.4000000000087 1014.4000000000087 1034.4000000000087 1054.4000000000087 1074.4000000000087 1094.4000000000087 1114.4000000000087 1134.4000000000087 1154.4000000000087 1174.4000000000087 1194.4000000000087 1214.4000000000087 1234.4000000000087
15.0,Iceland trip,1307.199999988079,assoc_trial,t_s_01_1,10.0,competing,,single,t_s_01_1.jpg,sub-101,1.0,1.0,,0.5068359375 0.501953125 0.4912109375 0.4833984375 0.4541015625 0.28515625 0.2080078125 0.1474609375 0.109375 0.0927734375 0.087890625 0.087890625 0.087890625 0.087890625 0.087890625 0.087890625 0.087890625 0.0888671875 0.0888671875 0.0888671875 0.0888671875 0.08984375 0.09375 0.09375 0.09765625 0.1015625 0.1044921875 0.1123046875 0.119140625 0.123046875 0.1240234375,0.8450520833333334 0.8385416666666666 0.8203125 0.8059895833333334 0.7513020833333334 0.44921875 0.31380208333333337 0.22526041666666666 0.17447916666666666 0.15234375 0.140625 0.140625 0.140625 0.140625 0.140625 0.140625 0.140625 0.140625 0.140625 0.140625 0.140625 0.140625 0.14322916666666666 0.14322916666666666 0.14713541666666666 0.14973958333333334 0.15364583333333334 0.15885416666666666 0.1640625 0.16927083333333334 0.17057291666666666,596.3999999999943 616.3999999999943 636.3999999999943 656.3999999999943 676.3999999999943 696.3999999999942 716.3999999999942 736.3999999999942 756.3999999999942 776.3999999999942 796.3999999999942 816.3999999999942 836.3999999999942 856.3999999999942 876.3999999999942 896.3999999999942 916.3999999999944 936.3999999999944 956.3999999999944 976.3999999999944 996.3999999999944 1016.3999999999944 1036.3999999999942 1056.3999999999942 1076.3999999999942 1096.3999999999942 1116.3999999999942 1136.3999999999942 1156.3999999999942 1176.3999999999942 1196.3999999999942
16.0,Miami trip,1121.9999999821157,assoc_trial,t_s_21_1,10.0,competing,close,paired,t_s_21_1.jpg,sub-101,0.0,1.0,1.0,0.4951171875 0.4931640625 0.490234375 0.490234375 0.4892578125 0.4912109375 0.5146484375 0.58203125 0.6943359375 0.8076171875 0.95703125 0.97265625 0.9755859375 0.9755859375 0.966796875 0.947265625 0.9384765625 0.93359375 0.9306640625 0.9267578125 0.92578125 0.9248046875 0.9208984375 0.9150390625 0.90234375 0.8955078125,0.8151041666666666 0.8125 0.8072916666666666 0.8072916666666666 0.8033854166666666 0.7838541666666666 0.7447916666666667 0.6575520833333333 0.5299479166666667 0.3932291666666666 0.1875 0.1484375 0.13151041666666666 0.125 0.1171875 0.11067708333333336 0.109375 0.109375 0.109375 0.109375 0.109375 0.109375 0.109375 0.11067708333333336 0.11848958333333336 0.12109375,548.1999999999971 568.1999999999971 588.1999999999971 608.1999999999971 628.1999999999971 648.1999999999971 668.1999999999971 688.1999999999971 708.1999999999971 728.1999999999971 748.1999999999971 768.1999999999971 788.1999999999971 808.1999999999971 828.1999999999971 848.1999999999971 868.1999999999971 888.1999999999971 908.1999999999972 928.1999999999972 948.1999999999972 968.1999999999972 988.1999999999972 1008.1999999999972 1028.1999999999969 1048.1999999999969
17.0,Iceland trip,1356.9999999940335,assoc_trial,t_s_17_2,10.0,competing,far,paired,t_s_17_2.jpg,sub-101,1.0,0.0,0.0,0.47265625 0.4365234375 0.390625 0.3232421875 0.2568359375 0.1611328125 0.1142578125 0.0927734375 0.083984375 0.08203125 0.0810546875 0.0810546875 0.0810546875 0.0810546875 0.0810546875 0.0859375 0.0908203125 0.09765625 0.1064453125 0.11328125 0.1201171875,0.8033854166666666 0.7174479166666667 0.6067708333333333 0.4596354166666666 0.32291666666666663 0.16145833333333334 0.08854166666666663 0.05078125 0.03255208333333337 0.02604166666666663 0.02473958333333337 0.02473958333333337 0.02473958333333337 0.02473958333333337 0.02473958333333337 0.02734375 0.03255208333333337 0.04036458333333337 0.05078125 0.05989583333333338 0.06770833333333337,813.5999999999913 833.5999999999913 853.5999999999913 873.5999999999913 893.5999999999913 913.5999999999913 933.5999999999913 953.5999999999913 973.5999999999913 993.5999999999913 1013.5999999999913 1033.5999999999913 1053.5999999999913 1073.5999999999913 1093.5999999999913 1113.5999999999913 1133.5999999999913 1153.5999999999913 1173.5999999999913 1193.5999999999913 1213.5999999999913
18.0,Iceland trip,1242.3999999821244,assoc_trial,t_s_05_1,10.0,competing,far,paired,t_s_05_1.jpg,sub-101,0.0,1.0,0.0,0.4951171875 0.4951171875 0.4951171875 0.4951171875 0.4951171875 0.4951171875 0.4951171875 0.494140625 0.494140625 0.4931640625 0.4931640625 0.4912109375 0.48828125 0.482421875 0.4755859375 0.4375 0.40625 0.3701171875 0.3369140625 0.2783203125 0.2666015625 0.26171875 0.26171875 0.2626953125 0.2705078125 0.2958984375 0.314453125 0.333984375 0.3486328125 0.3564453125 0.3564453125 0.35546875 0.3466796875 0.3203125 0.2529296875 0.216796875 0.193359375 0.1767578125 0.169921875 0.166015625,0.81640625 0.81640625 0.81640625 0.81640625 0.81640625 0.8151041666666666 0.8138020833333334 0.8125 0.8125 0.8125 0.8098958333333334 0.8059895833333334 0.80078125 0.7877604166666666 0.7682291666666666 0.6901041666666667 0.6302083333333333 0.5533854166666667 0.4791666666666666 0.34244791666666663 0.29947916666666663 0.27604166666666663 0.27473958333333337 0.27473958333333337 0.28125 0.29557291666666663 0.29947916666666663 0.3046875 0.3046875 0.3046875 0.3046875 0.30078125 0.28776041666666663 0.25390625 0.19791666666666666 0.16927083333333334 0.14973958333333334 0.13411458333333334 0.125 0.11979166666666664,299.70000000001164 319.70000000001164 339.70000000001164 359.7000000000116 379.7000000000117 399.7000000000117 419.7000000000117 439.7000000000117 459.7000000000117 479.7000000000117 499.7000000000117 519.7000000000116 539.7000000000116 559.7000000000116 579.7000000000116 599.7000000000116 619.7000000000116 639.7000000000116 659.7000000000116 679.7000000000116 699.7000000000116 719.7000000000116 739.7000000000116 759.7000000000116 779.7000000000116 799.7000000000116 819.7000000000116 839.7000000000116 859.7000000000116 879.7000000000116 899.7000000000116 919.7000000000116 939.7000000000116 959.7000000000116 979.7000000000116 999.7000000000116 1019.7000000000116 1039.7000000000116 1059.7000000000116 1079.7000000000116
19.0,Iceland trip,1475.2000000000116,assoc_trial,t_s_24_1,10.0,competing,,single,t_s_24_1.jpg,sub-101,1.0,1.0,,0.50390625 0.5029296875 0.501953125 0.501953125 0.5 0.4990234375 0.4970703125 0.4951171875 0.4921875 0.4892578125 0.4697265625 0.447265625 0.4189453125 0.3857421875 0.3564453125 0.306640625 0.291015625 0.275390625 0.2705078125 0.2685546875 0.2685546875 0.2685546875 0.2685546875 0.2685546875 0.2666015625 0.248046875 0.23046875 0.2099609375 0.189453125 0.1669921875 0.1298828125 0.1220703125 0.1181640625 0.1162109375 0.115234375 0.115234375 0.115234375 0.115234375 0.115234375 0.115234375 0.115234375 0.115234375 0.115234375 0.115234375 0.115234375 0.115234375,0.8046875 0.8033854166666666 0.8020833333333334 0.80078125 0.7994791666666666 0.7955729166666666 0.79296875 0.7877604166666666 0.78125 0.76953125 0.71484375 0.6575520833333333 0.5859375 0.51171875 0.4401041666666666 0.32552083333333337 0.29036458333333337 0.26171875 0.25260416666666663 0.24869791666666666 0.24869791666666666 0.24869791666666666 0.24869791666666666 0.24869791666666666 0.24869791666666666 0.24869791666666666 0.24869791666666666 0.24869791666666666 0.2473958333333333 0.24088541666666666 0.21744791666666666 0.20963541666666666 0.2044270833333333 0.20182291666666666 0.2005208333333333 0.19921875 0.19921875 0.19921875 0.19921875 0.19921875 0.19921875 0.19921875 0.19921875 0.19921875 0.19921875 0.19791666666666666,514.0 534.0 554.0 574.0 594.0 614.0 634.0 654.0 674.0 694.0 714.0 734.0 754.0 774.0 794.0 814.0 834.0 854.0 874.0 894.0 914.0 934.0 954.0 974.0 994.0 1014.0 1034.0 1054.0 1074.0 1094.0 1114.0 1134.0 1154.0 1174.0 1194.0 1214.0 1234.0 1254.0 1274.0 1294.0 1314.0 1334.0 1354.0 1374.0 1394.0 1414.0
20.0,Iceland trip,1288.3000000000031,assoc_trial,t_m_06_1,10.0,unique,close,paired,t_m_06_1.jpg,sub-101,1.0,0.0,0.0,0.4833984375 0.482421875 0.482421875 0.482421875 0.48046875 0.458984375 0.375 0.3037109375 0.275390625 0.22265625 0.15625 0.1533203125 0.15234375 0.15234375 0.15234375 0.15234375 0.15234375 0.1533203125 0.154296875 0.154296875 0.1552734375 0.1552734375 0.1552734375 0.1552734375 0.1552734375 0.1552734375 0.1552734375 0.1552734375 0.1552734375 0.15625 0.15625 0.15625 0.15625,0.8072916666666666 0.8072916666666666 0.8072916666666666 0.8072916666666666 0.8072916666666666 0.7799479166666666 0.6315104166666667 0.4934895833333334 0.43359375 0.33072916666666663 0.2005208333333333 0.19401041666666666 0.1927083333333333 0.1927083333333333 0.1927083333333333 0.1927083333333333 0.1927083333333333 0.1927083333333333 0.1927083333333333 0.1927083333333333 0.1927083333333333 0.1927083333333333 0.1927083333333333 0.1927083333333333 0.1927083333333333 0.1927083333333333 0.1927083333333333 0.1927083333333333 0.1927083333333333 0.1927083333333333 0.1927083333333333 0.1927083333333333 0.19010416666666666,580.5 600.5 620.5 640.5 660.5 680.5 700.5 720.5 740.5 760.5 780.5 800.5 820.5 840.5 860.5 880.5 900.5 920.5 940.5 960.5 980.5 1000.5 1020.5 1040.5 1060.5 1080.5 1100.5 1120.5 1140.5 1160.5 1180.5 1200.5 1220.5
21.0,Iceland trip,1037.6999999940454,assoc_trial,t_i_18_2,10.0,unique,close,paired,t_i_18_2.jpg,sub-101,1.0,1.0,1.0,0.4931640625 0.4931640625 0.4931640625 0.4931640625 0.4931640625 0.4931640625 0.4931640625 0.4931640625 0.4931640625 0.4931640625 0.4931640625 0.4931640625 0.4951171875 0.5322265625 0.5322265625 0.5703125 0.58203125 0.5869140625 0.587890625 0.5888671875 0.587890625 0.5751953125 0.5478515625 0.484375 0.2568359375 0.1884765625 0.142578125 0.111328125 0.0927734375 0.08203125 0.083984375 0.0908203125 0.0966796875 0.1005859375 0.1025390625 0.1025390625 0.1025390625 0.1025390625 0.1025390625 0.1025390625 0.1025390625 0.1025390625 0.1025390625 0.1025390625 0.1025390625 0.1025390625 0.1015625 0.1015625 0.1005859375 0.1005859375,0.83984375 0.83984375 0.83984375 0.83984375 0.83984375 0.83984375 0.83984375 0.83984375 0.83984375 0.83984375 0.83984375 0.83984375 0.83984375 0.8424479166666666 0.8424479166666666 0.8424479166666666 0.84375 0.8463541666666666 0.8463541666666666 0.84765625 0.8489583333333334 0.8502604166666666 0.8502604166666666 0.8346354166666666 0.68359375 0.6015625 0.5065104166666667 0.41536458333333337 0.33333333333333337 0.23307291666666666 0.20703125 0.18619791666666666 0.17578125 0.16927083333333334 0.16276041666666666 0.16276041666666666 0.16276041666666666 0.16276041666666666 0.16276041666666666 0.16276041666666666 0.16276041666666666 0.16276041666666666 0.16276041666666666 0.16276041666666666 0.16276041666666666 0.16276041666666666 0.16276041666666666 0.1640625 0.1640625 0.16536458333333334,0.0 20.0 40.0 60.0 80.0 100.0 120.0 140.0 160.0 180.0 200.0 220.0 240.0 260.0 280.0 300.0 320.0 340.0 360.0 380.0 400.0 420.0 440.0 460.0 480.0 500.0 520.0 540.0 560.0 580.0 600.0 620.0 640.0 660.0 680.0 700.0 720.0 740.0 760.0 780.0 800.0 820.0 840.0 860.0 880.0 900.0 920.0 940.0 960.0 980.0
22.0,Iceland trip,1331.2000000000114,assoc_trial,t_s_16_2,10.0,competing,close,paired,t_s_16_2.jpg,sub-101,0.0,1.0,1.0,0.5009765625 0.5009765625 0.5009765625 0.5009765625 0.5009765625 0.5009765625 0.5009765625 0.5009765625 0.5009765625 0.5 0.5 0.4990234375 0.4990234375 0.4970703125 0.49609375 0.4921875 0.4873046875 0.4755859375 0.462890625 0.44140625 0.3857421875 0.3564453125 0.3359375 0.3203125 0.3046875 0.28125 0.26953125 0.2578125 0.2470703125 0.232421875 0.2177734375 0.212890625 0.2109375 0.208984375 0.208984375 0.208984375 0.208984375 0.208984375 0.208984375 0.208984375 0.208984375 0.208984375 0.208984375 0.208984375 0.19921875 0.1943359375 0.185546875 0.17578125 0.1689453125 0.1611328125 0.16015625,0.81640625 0.81640625 0.81640625 0.81640625 0.8151041666666666 0.8151041666666666 0.8151041666666666 0.8151041666666666 0.8151041666666666 0.8151041666666666 0.8125 0.8125 0.8111979166666666 0.8098958333333334 0.8072916666666666 0.7981770833333334 0.7890625 0.76171875 0.7369791666666667 0.6861979166666667 0.54296875 0.4700520833333334 0.40364583333333337 0.35416666666666663 0.31510416666666663 0.2578125 0.234375 0.2109375 0.19401041666666666 0.17317708333333334 0.15755208333333334 0.15104166666666666 0.1484375 0.14713541666666666 0.14713541666666666 0.14713541666666666 0.14713541666666666 0.14713541666666666 0.14713541666666666 0.14713541666666666 0.14713541666666666 0.14713541666666666 0.14713541666666666 0.14713541666666666 0.14713541666666666 0.1484375 0.15104166666666666 0.15234375 0.15494791666666666 0.15625 0.15625,298.4000000000233 318.4000000000233 338.4000000000233 358.40000000002334 378.40000000002334 398.40000000002334 418.40000000002334 438.40000000002334 458.40000000002334 478.40000000002334 498.40000000002334 518.4000000000234 538.4000000000234 558.4000000000234 578.4000000000233 598.4000000000233 618.4000000000233 638.4000000000233 658.4000000000233 678.4000000000233 698.4000000000232 718.4000000000232 738.4000000000232 758.4000000000232 778.4000000000232 798.4000000000232 818.4000000000232 838.4000000000232 858.4000000000232 878.4000000000232 898.4000000000232 918.4000000000232 938.4000000000232 958.4000000000232 978.4000000000232 998.4000000000232 1018.4000000000232 1038.4000000000233 1058.4000000000233 1078.4000000000233 1098.4000000000233 1118.4000000000233 1138.4000000000233 1158.4000000000233 1178.4000000000233 1198.4000000000233 1218.4000000000233 1238.4000000000233 1258.4000000000233 1278.4000000000233 1298.4000000000233
23.0,Iceland trip,1042.8999999999942,assoc_trial,t_s_22_2,10.0,competing,far,paired,t_s_22_2.jpg,sub-101,0.0,1.0,1.0,0.509765625 0.5185546875 0.529296875 0.54296875 0.5556640625 0.5791015625 0.5869140625 0.591796875 0.5966796875 0.5986328125 0.599609375 0.5986328125 0.5927734375 0.57421875 0.53125 0.390625 0.314453125 0.2470703125 0.1943359375 0.1494140625 0.1064453125 0.1044921875 0.1044921875 0.10546875 0.109375 0.1220703125 0.12890625 0.134765625 0.1396484375 0.1416015625 0.142578125,0.8138020833333334 0.8177083333333334 0.8216145833333334 0.8268229166666666 0.8307291666666666 0.8333333333333334 0.8385416666666666 0.8424479166666666 0.84765625 0.8515625 0.8567708333333334 0.8619791666666666 0.8619791666666666 0.8619791666666666 0.8502604166666666 0.7356770833333333 0.6263020833333333 0.5 0.375 0.25390625 0.12890625 0.11458333333333336 0.11458333333333336 0.11458333333333336 0.11979166666666664 0.13802083333333334 0.14583333333333334 0.15234375 0.15755208333333334 0.16015625 0.16015625,82.79999999998836 102.79999999998836 122.79999999998836 142.7999999999884 162.7999999999884 182.79999999998842 202.79999999998842 222.79999999998842 242.79999999998842 262.7999999999884 282.79999999998836 302.79999999998836 322.79999999998836 342.79999999998836 362.7999999999884 382.7999999999884 402.7999999999884 422.7999999999884 442.7999999999884 462.7999999999884 482.7999999999884 502.7999999999884 522.7999999999884 542.7999999999884 562.7999999999884 582.7999999999884 602.7999999999884 622.7999999999884 642.7999999999884 662.7999999999884 682.7999999999884
24.0,Iceland trip,1190.6000000000058,assoc_trial,t_s_15_1,10.0,competing,,single,t_s_15_1.jpg,sub-101,1.0,1.0,,0.4755859375 0.4716796875 0.462890625 0.4453125 0.4072265625 0.302734375 0.25 0.1728515625 0.1298828125 0.0947265625 0.0693359375 0.0693359375 0.0712890625 0.0732421875 0.076171875 0.0830078125 0.0859375 0.08984375 0.09375 0.09765625 0.1015625 0.1025390625 0.103515625 0.103515625 0.103515625 0.103515625 0.103515625 0.103515625 0.1044921875,0.80859375 0.80859375 0.8033854166666666 0.7838541666666666 0.7473958333333333 0.59765625 0.5104166666666667 0.3815104166666666 0.30208333333333337 0.2317708333333333 0.15625 0.14322916666666666 0.13802083333333334 0.13541666666666666 0.13411458333333334 0.1328125 0.1328125 0.1328125 0.1328125 0.1328125 0.13151041666666666 0.13151041666666666 0.13151041666666666 0.13151041666666666 0.13151041666666666 0.13151041666666666 0.13151041666666666 0.13151041666666666 0.13151041666666666,265.20000000001164 285.20000000001164 305.20000000001164 325.20000000001164 345.2000000000116 365.2000000000117 385.2000000000117 405.2000000000117 425.2000000000117 445.2000000000117 465.2000000000117 485.2000000000117 505.2000000000117 525.2000000000116 545.2000000000116 565.2000000000116 585.2000000000116 605.2000000000116 625.2000000000116 645.2000000000116 665.2000000000116 685.2000000000116 705.2000000000116 725.2000000000116 745.2000000000116 765.2000000000116 785.2000000000116 805.2000000000116 825.2000000000116
25.0,Iceland trip,1111.0,assoc_trial,t_i_08_2,10.0,unique,far,paired,t_i_08_2.jpg,sub-101,1.0,1.0,1.0,0.48046875 0.431640625 0.365234375 0.365234375 0.2509765625 0.1572265625 0.1142578125 0.09765625 0.0966796875 0.0966796875 0.1025390625 0.111328125 0.12109375 0.12890625 0.1318359375 0.1328125,0.8229166666666666 0.7760416666666666 0.6809895833333333 0.6809895833333333 0.4622395833333334 0.23307291666666666 0.12890625 0.07942708333333337 0.07682291666666663 0.07682291666666663 0.07942708333333337 0.08854166666666663 0.09895833333333336 0.10416666666666664 0.10677083333333336 0.10807291666666664,447.7999999999884 467.7999999999884 487.7999999999884 507.7999999999884 527.7999999999884 547.7999999999884 567.7999999999884 587.7999999999884 607.7999999999884 627.7999999999884 647.7999999999884 667.7999999999884 687.7999999999884 707.7999999999884 727.7999999999884 747.7999999999884
26.0,Iceland trip,1224.8999999999942,assoc_trial,t_s_12_1,10.0,competing,close,paired,t_s_12_1.jpg,sub-101,1.0,1.0,1.0,0.490234375 0.48828125 0.484375 0.4794921875 0.4716796875 0.453125 0.3828125 0.34375 0.30078125 0.265625 0.236328125 0.2333984375 0.2333984375 0.2333984375 0.2333984375 0.2333984375 0.2333984375 0.2333984375 0.2333984375 0.2333984375 0.234375 0.234375 0.2333984375 0.232421875 0.2314453125 0.2314453125 0.2314453125 0.2314453125 0.2314453125 0.2314453125 0.2314453125 0.2314453125 0.2314453125 0.2314453125 0.2314453125 0.2314453125 0.2314453125 0.2314453125 0.2314453125 0.2314453125 0.2314453125 0.23046875 0.2265625 0.21875 0.1826171875 0.169921875 0.166015625 0.16015625 0.158203125 0.158203125 0.15625,0.8216145833333334 0.81640625 0.8098958333333334 0.7994791666666666 0.7799479166666666 0.7317708333333333 0.5403645833333333 0.43098958333333337 0.32421875 0.23828125 0.171875 0.16796875 0.16796875 0.16796875 0.16796875 0.16796875 0.16796875 0.17057291666666666 0.17447916666666666 0.17838541666666666 0.18619791666666666 0.19140625 0.19401041666666666 0.19791666666666666 0.20182291666666666 0.2044270833333333 0.2044270833333333 0.2044270833333333 0.20572916666666666 0.20572916666666666 0.20572916666666666 0.20572916666666666 0.20572916666666666 0.20572916666666666 0.20572916666666666 0.20572916666666666 0.20572916666666666 0.20572916666666666 0.20572916666666666 0.20572916666666666 0.20572916666666666 0.20703125 0.20182291666666666 0.1953125 0.17317708333333334 0.17057291666666666 0.16796875 0.16536458333333334 0.1640625 0.1640625 0.16276041666666666,182.10000000000585 202.10000000000585 222.10000000000585 242.10000000000585 262.1000000000058 282.1000000000058 302.1000000000058 322.1000000000058 342.1000000000058 362.1000000000058 382.1000000000058 402.1000000000058 422.1000000000058 442.1000000000058 462.1000000000058 482.1000000000058 502.1000000000058 522.1000000000058 542.1000000000058 562.1000000000058 582.1000000000057 602.1000000000057 622.1000000000057 642.1000000000057 662.1000000000057 682.1000000000057 702.1000000000058 722.1000000000058 742.1000000000058 762.1000000000058 782.1000000000058 802.1000000000058 822.1000000000058 842.1000000000058 862.1000000000058 882.1000000000058 902.1000000000058 922.1000000000058 942.1000000000058 962.1000000000058 982.1000000000058 1002.1000000000058 1022.1000000000058 1042.1000000000058 1062.1000000000058 1082.1000000000058 1102.1000000000058 1122.1000000000058 1142.1000000000058 1162.1000000000058 1182.1000000000058
27.0,Iceland trip,1144.8999999999942,assoc_trial,t_m_18_1,10.0,unique,far,paired,t_m_18_1.jpg,sub-101,1.0,0.0,0.0,0.4951171875 0.4951171875 0.4951171875 0.4951171875 0.4951171875 0.4951171875 0.4951171875 0.4951171875 0.4951171875 0.4951171875 0.4951171875 0.494140625 0.4931640625 0.4912109375 0.4873046875 0.46484375 0.4306640625 0.3837890625 0.3369140625 0.28515625 0.220703125 0.2119140625 0.2119140625 0.2119140625 0.2119140625 0.2119140625 0.2119140625 0.2119140625 0.2119140625 0.2119140625 0.2099609375 0.2099609375 0.2099609375 0.2099609375 0.208984375 0.208984375 0.208984375 0.208984375 0.208984375 0.2080078125 0.1982421875 0.193359375 0.181640625 0.1728515625 0.1455078125 0.142578125,0.84765625 0.8424479166666666 0.8424479166666666 0.8385416666666666 0.8359375 0.8307291666666666 0.8268229166666666 0.8229166666666666 0.8177083333333334 0.8138020833333334 0.8033854166666666 0.7994791666666666 0.7942708333333334 0.7864583333333334 0.7747395833333334 0.7213541666666667 0.6536458333333333 0.5559895833333333 0.4453125 0.32682291666666663 0.1953125 0.1809895833333333 0.1809895833333333 0.1809895833333333 0.1809895833333333 0.1809895833333333 0.1809895833333333 0.1796875 0.1796875 0.1796875 0.17838541666666666 0.17838541666666666 0.17838541666666666 0.17838541666666666 0.17708333333333334 0.17708333333333334 0.17708333333333334 0.17708333333333334 0.17708333333333334 0.17708333333333334 0.17708333333333334 0.17708333333333334 0.17708333333333334 0.17708333333333334 0.171875 0.17057291666666666,216.8999999999941 236.8999999999941 256.89999999999407 276.89999999999407 296.8999999999941 316.8999999999941 336.8999999999941 356.8999999999941 376.8999999999941 396.8999999999941 416.8999999999941 436.8999999999941 456.8999999999941 476.8999999999941 496.8999999999941 516.8999999999942 536.8999999999942 556.8999999999942 576.8999999999943 596.8999999999943 616.8999999999943 636.8999999999943 656.8999999999943 676.8999999999943 696.8999999999942 716.8999999999942 736.8999999999942 756.8999999999942 776.8999999999942 796.8999999999942 816.8999999999942 836.8999999999942 856.8999999999942 876.8999999999942 896.8999999999942 916.8999999999942 936.8999999999942 956.8999999999942 976.8999999999942 996.8999999999942 1016.8999999999942 1036.8999999999942 1056.8999999999942 1076.8999999999942 1096.8999999999942 1116.8999999999942
28.0,Iceland trip,1068.4999999940337,assoc_trial,t_i_19_2,10.0,unique,far,paired,t_i_19_2.jpg,sub-101,0.0,1.0,0.0,0.494140625 0.48046875 0.48046875 0.47265625 0.4345703125 0.3916015625 0.283203125 0.23046875 0.1943359375 0.18359375 0.181640625 0.181640625 0.181640625 0.1826171875 0.1826171875 0.1826171875 0.1826171875 0.1826171875 0.1845703125 0.185546875 0.1865234375 0.1865234375 0.1865234375 0.1865234375 0.1865234375 0.1865234375 0.1865234375 0.1865234375 0.1865234375 0.1865234375 0.1865234375 0.1865234375 0.185546875 0.185546875 0.1826171875 0.1796875 0.1748046875 0.1689453125 0.1630859375 0.1533203125 0.13671875 0.1298828125 0.125 0.123046875,0.7994791666666666 0.78125 0.78125 0.76953125 0.7057291666666667 0.6276041666666667 0.38671875 0.26822916666666663 0.1848958333333333 0.14973958333333334 0.14583333333333334 0.14583333333333334 0.14583333333333334 0.14583333333333334 0.14583333333333334 0.14583333333333334 0.14583333333333334 0.14713541666666666 0.15234375 0.15494791666666666 0.16276041666666666 0.16666666666666666 0.16927083333333334 0.171875 0.17317708333333334 0.17447916666666666 0.17578125 0.17578125 0.17578125 0.17708333333333334 0.17708333333333334 0.17838541666666666 0.17838541666666666 0.1796875 0.1796875 0.1796875 0.1796875 0.1796875 0.1796875 0.1796875 0.1796875 0.1796875 0.17838541666666666 0.17708333333333334,166.10000000000582 186.10000000000585 206.10000000000585 226.10000000000585 246.10000000000585 266.1000000000058 286.1000000000058 306.1000000000058 326.1000000000058 346.1000000000058 366.1000000000058 386.1000000000058 406.1000000000058 426.1000000000058 446.1000000000058 466.1000000000058 486.1000000000058 506.1000000000058 526.1000000000058 546.1000000000058 566.1000000000057 586.1000000000057 606.1000000000057 626.1000000000057 646.1000000000057 666.1000000000057 686.1000000000057 706.1000000000058 726.1000000000058 746.1000000000058 766.1000000000058 786.1000000000058 806.1000000000058 826.1000000000058 846.1000000000058 866.1000000000058 886.1000000000058 906.1000000000058 926.1000000000058 946.1000000000058 966.1000000000058 986.1000000000058 1006.1000000000058 1026.1000000000058
29.0,Iceland trip,1154.699999988079,assoc_trial,t_i_16_1,10.0,unique,close,paired,t_i_16_1.jpg,sub-101,1.0,1.0,1.0,0.4990234375 0.498046875 0.494140625 0.4921875 0.4892578125 0.470703125 0.4599609375 0.4453125 0.4365234375 0.4296875 0.4091796875 0.3828125 0.3623046875 0.2822265625 0.2197265625 0.1171875 0.0830078125 0.0615234375 0.0537109375 0.052734375 0.052734375 0.052734375 0.052734375 0.0556640625 0.0634765625 0.068359375 0.0751953125 0.087890625 0.1025390625 0.126953125 0.1328125 0.1357421875 0.13671875 0.13671875 0.13671875 0.13671875,0.8098958333333334 0.80859375 0.8033854166666666 0.8020833333333334 0.7981770833333334 0.77734375 0.7669270833333334 0.7552083333333334 0.7513020833333334 0.7513020833333334 0.7486979166666667 0.7213541666666667 0.6940104166666667 0.5729166666666667 0.4713541666666666 0.29817708333333337 0.2395833333333333 0.20703125 0.19010416666666666 0.1848958333333333 0.1848958333333333 0.18359375 0.18359375 0.18359375 0.1875 0.1888020833333333 0.1888020833333333 0.1888020833333333 0.1848958333333333 0.16927083333333334 0.16276041666666666 0.15625 0.15234375 0.14973958333333334 0.14713541666666666 0.14583333333333334,333.70000000001164 353.7000000000116 373.7000000000117 393.7000000000117 413.7000000000117 433.7000000000117 453.7000000000117 473.7000000000117 493.7000000000117 513.7000000000116 533.7000000000116 553.7000000000116 573.7000000000116 593.7000000000116 613.7000000000116 633.7000000000116 653.7000000000116 673.7000000000116 693.7000000000116 713.7000000000116 733.7000000000116 753.7000000000116 773.7000000000116 793.7000000000116 813.7000000000116 833.7000000000116 853.7000000000116 873.7000000000116 893.7000000000116 913.7000000000116 933.7000000000116 953.7000000000116 973.7000000000116 993.7000000000116 1013.7000000000116 1033.7000000000116
30.0,Miami trip,1425.4000000000233,assoc_trial,t_m_15_2,10.0,unique,far,paired,t_m_15_2.jpg,sub-101,1.0,1.0,1.0,0.4814453125 0.4814453125 0.4814453125 0.4814453125 0.4814453125 0.4814453125 0.4814453125 0.4814453125 0.4814453125 0.4814453125 0.4814453125 0.4814453125 0.4814453125 0.48046875 0.478515625 0.478515625 0.4775390625 0.474609375 0.470703125 0.4658203125 0.4443359375 0.4287109375 0.4111328125 0.390625 0.349609375 0.333984375 0.3193359375 0.3076171875 0.296875 0.287109375 0.28515625 0.28515625 0.2880859375 0.3037109375 0.3974609375 0.45703125 0.5078125 0.5361328125 0.5498046875 0.5576171875 0.5693359375 0.58984375 0.6240234375 0.6640625 0.732421875 0.7587890625 0.77734375 0.80078125 0.80859375 0.8095703125 0.8095703125 0.8095703125 0.8095703125 0.8095703125 0.8095703125 0.8095703125 0.8095703125 0.8095703125 0.8095703125 0.8095703125 0.8095703125 0.814453125 0.81640625 0.826171875 0.8291015625 0.8310546875 0.8310546875 0.8330078125,0.8072916666666666 0.8072916666666666 0.8072916666666666 0.8072916666666666 0.8072916666666666 0.8072916666666666 0.8072916666666666 0.8072916666666666 0.8072916666666666 0.8072916666666666 0.8072916666666666 0.8059895833333334 0.8059895833333334 0.8059895833333334 0.8033854166666666 0.8020833333333334 0.8020833333333334 0.7981770833333334 0.7942708333333334 0.7890625 0.7643229166666666 0.7421875 0.71484375 0.68359375 0.6145833333333333 0.5859375 0.55859375 0.5325520833333333 0.5013020833333333 0.4661458333333334 0.4557291666666666 0.4518229166666666 0.4479166666666666 0.44661458333333337 0.4505208333333334 0.453125 0.453125 0.453125 0.453125 0.44661458333333337 0.4283854166666666 0.4010416666666666 0.37239583333333337 0.34765625 0.3203125 0.30989583333333337 0.296875 0.27473958333333337 0.25651041666666663 0.24869791666666666 0.2421875 0.23697916666666666 0.23697916666666666 0.23697916666666666 0.23697916666666666 0.23697916666666666 0.23697916666666666 0.2356770833333333 0.2356770833333333 0.23307291666666666 0.22916666666666666 0.2200520833333333 0.2161458333333333 0.19791666666666666 0.1888020833333333 0.18359375 0.1809895833333333 0.17838541666666666,68.10000000000582 88.10000000000582 108.10000000000582 128.10000000000582 148.10000000000582 168.10000000000582 188.10000000000585 208.10000000000585 228.10000000000585 248.10000000000585 268.1000000000058 288.1000000000058 308.1000000000058 328.1000000000058 348.1000000000058 368.1000000000058 388.1000000000058 408.1000000000058 428.1000000000058 448.1000000000058 468.1000000000058 488.1000000000058 508.1000000000058 528.1000000000058 548.1000000000058 568.1000000000057 588.1000000000057 608.1000000000057 628.1000000000057 648.1000000000057 668.1000000000057 688.1000000000058 708.1000000000058 728.1000000000058 748.1000000000058 768.1000000000058 788.1000000000058 808.1000000000058 828.1000000000058 848.1000000000058 868.1000000000058 888.1000000000058 908.1000000000058 928.1000000000058 948.1000000000058 968.1000000000058 988.1000000000058 1008.1000000000058 1028.1000000000058 1048.1000000000058 1068.1000000000058 1088.1000000000058 1108.1000000000058 1128.1000000000058 1148.1000000000058 1168.1000000000058 1188.1000000000058 1208.1000000000058 1228.1000000000058 1248.1000000000058 1268.1000000000058 1288.1000000000058 1308.1000000000058 1328.1000000000058 1348.1000000000058 1368.1000000000058 1388.1000000000058 1408.1000000000058
31.0,Iceland trip,1304.9000000059605,assoc_trial,t_i_04_1,10.0,unique,close,paired,t_i_04_1.jpg,sub-101,1.0,1.0,1.0,0.4677734375 0.4677734375 0.4677734375 0.447265625 0.43359375 0.3056640625 0.2626953125 0.2275390625 0.20703125 0.197265625 0.1923828125 0.1923828125 0.1923828125 0.1923828125 0.1923828125 0.1923828125 0.1923828125 0.1923828125 0.1923828125 0.1923828125 0.189453125 0.185546875 0.1826171875 0.1796875 0.17578125 0.1728515625 0.1708984375 0.1689453125 0.1669921875 0.1630859375 0.16015625 0.1572265625 0.1552734375 0.15234375 0.1455078125 0.14453125 0.1435546875 0.142578125,0.7981770833333334 0.7981770833333334 0.7981770833333334 0.7643229166666666 0.7369791666666667 0.4856770833333334 0.3984375 0.32682291666666663 0.28255208333333337 0.26171875 0.24869791666666666 0.24609375 0.24609375 0.24609375 0.24479166666666666 0.2395833333333333 0.234375 0.22526041666666666 0.2109375 0.1953125 0.16015625 0.1484375 0.140625 0.13411458333333334 0.12630208333333334 0.125 0.12369791666666664 0.12239583333333336 0.11979166666666664 0.1171875 0.11328125 0.11067708333333336 0.11067708333333336 0.10807291666666664 0.10546875 0.10546875 0.10546875 0.10546875,513.6000000000058 533.6000000000058 553.6000000000058 573.6000000000057 593.6000000000057 613.6000000000057 633.6000000000057 653.6000000000057 673.6000000000057 693.6000000000058 713.6000000000058 733.6000000000058 753.6000000000058 773.6000000000058 793.6000000000058 813.6000000000058 833.6000000000058 853.6000000000058 873.6000000000058 893.6000000000058 913.6000000000058 933.6000000000058 953.6000000000058 973.6000000000058 993.6000000000058 1013.6000000000058 1033.6000000000058 1053.6000000000058 1073.6000000000058 1093.6000000000058 1113.6000000000058 1133.6000000000058 1153.6000000000058 1173.6000000000058 1193.6000000000058 1213.6000000000058 1233.6000000000058 1253.6000000000058
32.0,Iceland trip,1094.1999999999532,assoc_trial,t_s_10_1,10.0,competing,,single,t_s_10_1.jpg,sub-101,1.0,1.0,,0.4775390625 0.4697265625 0.4541015625 0.4287109375 0.3837890625 0.2783203125 0.2265625 0.18359375 0.154296875 0.140625 0.1337890625 0.1337890625 0.134765625 0.13671875 0.138671875 0.140625 0.140625 0.1416015625 0.142578125 0.142578125 0.142578125 0.142578125 0.142578125 0.142578125 0.142578125,0.8177083333333334 0.8125 0.7981770833333334 0.7643229166666666 0.69140625 0.4921875 0.3971354166666666 0.3125 0.25260416666666663 0.2200520833333333 0.20572916666666666 0.2044270833333333 0.2005208333333333 0.1966145833333333 0.19401041666666666 0.1888020833333333 0.1848958333333333 0.1809895833333333 0.17578125 0.171875 0.1640625 0.16015625 0.15625 0.15494791666666666 0.15364583333333334,531.5999999999766 551.5999999999766 571.5999999999766 591.5999999999766 611.5999999999766 631.5999999999766 651.5999999999766 671.5999999999766 691.5999999999766 711.5999999999766 731.5999999999766 751.5999999999766 771.5999999999766 791.5999999999766 811.5999999999766 831.5999999999766 851.5999999999766 871.5999999999766 891.5999999999766 911.5999999999766 931.5999999999766 951.5999999999766 971.5999999999766 991.5999999999766 1011.5999999999766
33.0,Iceland trip,1144.0,assoc_trial,t_s_03_1,10.0,competing,close,paired,t_s_03_1.jpg,sub-101,1.0,0.0,0.0,0.4775390625 0.4775390625 0.4775390625 0.4765625 0.4697265625 0.451171875 0.3759765625 0.314453125 0.2431640625 0.173828125 0.0810546875 0.078125 0.078125 0.08203125 0.091796875 0.111328125 0.1220703125 0.125 0.1279296875 0.130859375 0.1357421875 0.13671875 0.1376953125,0.8385416666666666 0.8385416666666666 0.8372395833333334 0.8372395833333334 0.828125 0.7916666666666666 0.62109375 0.4817708333333334 0.31770833333333337 0.17057291666666666 0.0013020833333333706 0.0013020833333333706 0.0013020833333333706 0.00520833333333337 0.01953125 0.04557291666666663 0.06380208333333337 0.06901041666666663 0.07552083333333337 0.08072916666666663 0.09114583333333336 0.09244791666666664 0.09375,298.3999999999942 318.3999999999942 338.3999999999942 358.3999999999942 378.3999999999942 398.3999999999942 418.3999999999942 438.3999999999942 458.3999999999942 478.3999999999942 498.3999999999942 518.3999999999942 538.3999999999942 558.3999999999942 578.3999999999943 598.3999999999943 618.3999999999943 638.3999999999943 658.3999999999943 678.3999999999943 698.3999999999942 718.3999999999942 738.3999999999942
34.0,Iceland trip,1144.2000000000114,assoc_trial,t_i_20_1,10.0,unique,far,paired,t_i_20_1.jpg,sub-101,1.0,1.0,1.0,0.4912109375 0.4912109375 0.4912109375 0.4912109375 0.4912109375 0.4912109375 0.4912109375 0.4912109375 0.4912109375 0.4912109375 0.4892578125 0.4873046875 0.4853515625 0.4814453125 0.4736328125 0.4521484375 0.4384765625 0.4150390625 0.3916015625 0.3681640625 0.3330078125 0.318359375 0.310546875 0.3056640625 0.2998046875 0.2890625 0.28515625 0.279296875 0.2744140625 0.2626953125 0.2509765625 0.23828125 0.216796875 0.2041015625 0.1904296875 0.1669921875 0.1552734375 0.146484375 0.140625 0.1357421875,0.8177083333333334 0.8177083333333334 0.8177083333333334 0.8177083333333334 0.8177083333333334 0.8177083333333334 0.8177083333333334 0.81640625 0.8151041666666666 0.8151041666666666 0.8125 0.8098958333333334 0.8033854166666666 0.7864583333333334 0.7578125 0.65625 0.5885416666666667 0.5052083333333333 0.42578125 0.35807291666666663 0.27734375 0.25260416666666663 0.24088541666666666 0.2356770833333333 0.23046875 0.22265625 0.2200520833333333 0.21744791666666666 0.21484375 0.2083333333333333 0.20182291666666666 0.19401041666666666 0.1848958333333333 0.1796875 0.17447916666666666 0.16536458333333334 0.16145833333333334 0.15625 0.15494791666666666 0.15234375,265.4000000000233 285.4000000000233 305.4000000000233 325.4000000000233 345.40000000002334 365.40000000002334 385.40000000002334 405.40000000002334 425.40000000002334 445.40000000002334 465.40000000002334 485.40000000002334 505.40000000002334 525.4000000000234 545.4000000000234 565.4000000000233 585.4000000000233 605.4000000000233 625.4000000000233 645.4000000000233 665.4000000000233 685.4000000000233 705.4000000000232 725.4000000000232 745.4000000000232 765.4000000000232 785.4000000000232 805.4000000000232 825.4000000000232 845.4000000000232 865.4000000000232 885.4000000000232 905.4000000000232 925.4000000000232 945.4000000000232 965.4000000000232 985.4000000000232 1005.4000000000232 1025.4000000000233 1045.4000000000233
35.0,Iceland trip,1122.4999999880674,assoc_trial,t_s_06_1,10.0,competing,close,paired,t_s_06_1.jpg,sub-101,1.0,1.0,0.0,0.4853515625 0.4853515625 0.4853515625 0.4853515625 0.4853515625 0.4853515625 0.4853515625 0.4853515625 0.4853515625 0.4853515625 0.482421875 0.4521484375 0.4404296875 0.4091796875 0.3720703125 0.306640625 0.2412109375 0.23046875 0.2275390625 0.2275390625 0.2275390625 0.2275390625 0.2275390625 0.2275390625 0.2275390625 0.2275390625 0.2275390625 0.2275390625 0.2275390625 0.2275390625 0.2275390625 0.2275390625 0.2275390625 0.2275390625 0.2265625 0.2216796875 0.220703125 0.2158203125 0.203125 0.1943359375 0.1787109375 0.173828125 0.1728515625 0.1728515625 0.1708984375 0.169921875,0.828125 0.8268229166666666 0.8255208333333334 0.8255208333333334 0.8255208333333334 0.8255208333333334 0.8255208333333334 0.8255208333333334 0.8255208333333334 0.8255208333333334 0.8203125 0.7747395833333334 0.7526041666666666 0.6927083333333333 0.60546875 0.4505208333333334 0.29817708333333337 0.26302083333333337 0.25130208333333337 0.2473958333333333 0.2473958333333333 0.2473958333333333 0.2473958333333333 0.2473958333333333 0.2473958333333333 0.23307291666666666 0.21484375 0.2005208333333333 0.19140625 0.1848958333333333 0.1796875 0.1796875 0.1796875 0.1796875 0.17838541666666666 0.17708333333333334 0.17578125 0.17317708333333334 0.16536458333333334 0.16015625 0.15104166666666666 0.14973958333333334 0.14973958333333334 0.14973958333333334 0.14973958333333334 0.14973958333333334,199.09999999997672 219.09999999997672 239.09999999997672 259.0999999999767 279.0999999999767 299.0999999999767 319.0999999999767 339.0999999999767 359.09999999997666 379.09999999997666 399.09999999997666 419.09999999997666 439.09999999997666 459.09999999997666 479.09999999997666 499.09999999997666 519.0999999999766 539.0999999999766 559.0999999999766 579.0999999999767 599.0999999999767 619.0999999999767 639.0999999999767 659.0999999999767 679.0999999999767 699.0999999999768 719.0999999999768 739.0999999999768 759.0999999999768 779.0999999999768 799.0999999999768 819.0999999999768 839.0999999999768 859.0999999999768 879.0999999999768 899.0999999999768 919.0999999999768 939.0999999999768 959.0999999999768 979.0999999999768 999.0999999999768 1019.0999999999768 1039.0999999999767 1059.0999999999767 1079.0999999999767 1099.0999999999767
36.0,Iceland trip,1210.2999999999593,assoc_trial,t_s_22_1,10.0,competing,far,paired,t_s_22_1.jpg,sub-101,0.0,1.0,1.0,0.4541015625 0.455078125 0.4560546875 0.45703125 0.45703125 0.4580078125 0.4580078125 0.4580078125 0.4580078125 0.458984375 0.458984375 0.458984375 0.458984375 0.4599609375 0.4599609375 0.4619140625 0.4619140625 0.4619140625 0.44921875 0.4189453125 0.3271484375 0.287109375 0.2568359375 0.2490234375 0.248046875 0.2490234375 0.2509765625 0.2509765625 0.2509765625 0.2509765625 0.251953125 0.251953125 0.251953125 0.251953125 0.251953125 0.251953125 0.251953125 0.251953125 0.251953125 0.251953125 0.251953125 0.251953125 0.251953125 0.251953125 0.248046875 0.2412109375 0.2255859375 0.20703125 0.19140625 0.1767578125 0.1748046875,0.8216145833333334 0.8216145833333334 0.8216145833333334 0.8216145833333334 0.8216145833333334 0.8216145833333334 0.8216145833333334 0.8216145833333334 0.8216145833333334 0.8216145833333334 0.8216145833333334 0.8216145833333334 0.8216145833333334 0.8216145833333334 0.8216145833333334 0.8203125 0.8177083333333334 0.80859375 0.7786458333333334 0.7122395833333333 0.5 0.3776041666666666 0.22916666666666666 0.16927083333333334 0.13020833333333334 0.09895833333333336 0.09244791666666664 0.09244791666666664 0.09114583333333336 0.09114583333333336 0.08984375 0.08984375 0.08854166666666663 0.08854166666666663 0.08723958333333337 0.0859375 0.08463541666666663 0.08333333333333337 0.08333333333333337 0.08072916666666663 0.08072916666666663 0.08072916666666663 0.08072916666666663 0.08072916666666663 0.08333333333333337 0.08984375 0.10677083333333336 0.12369791666666664 0.13932291666666666 0.15364583333333334 0.15494791666666666,132.39999999999418 152.39999999999418 172.3999999999942 192.39999999999415 212.39999999999415 232.39999999999415 252.39999999999415 272.3999999999942 292.3999999999942 312.3999999999942 332.3999999999942 352.3999999999942 372.3999999999942 392.3999999999942 412.3999999999942 432.3999999999942 452.3999999999942 472.3999999999942 492.3999999999942 512.3999999999942 532.3999999999942 552.3999999999942 572.3999999999943 592.3999999999943 612.3999999999943 632.3999999999943 652.3999999999943 672.3999999999943 692.3999999999942 712.3999999999942 732.3999999999942 752.3999999999942 772.3999999999942 792.3999999999942 812.3999999999942 832.3999999999942 852.3999999999942 872.3999999999942 892.3999999999942 912.3999999999942 932.3999999999942 952.3999999999942 972.3999999999942 992.3999999999942 1012.3999999999942 1032.3999999999942 1052.3999999999942 1072.3999999999942 1092.3999999999942 1112.3999999999942 1132.3999999999942
37.0,Miami trip,1161.600000000035,assoc_trial,t_m_08_1,10.0,unique,close,paired,t_m_08_1.jpg,sub-101,1.0,1.0,1.0,0.4833984375 0.4833984375 0.4833984375 0.4833984375 0.4833984375 0.4833984375 0.4853515625 0.486328125 0.486328125 0.4873046875 0.48828125 0.4892578125 0.4892578125 0.490234375 0.490234375 0.4921875 0.4931640625 0.4931640625 0.4931640625 0.494140625 0.4951171875 0.4951171875 0.4951171875 0.4951171875 0.4951171875 0.4951171875 0.4892578125 0.453125 0.4111328125 0.361328125 0.26171875 0.2509765625 0.251953125 0.2578125 0.294921875 0.3203125 0.3427734375 0.369140625 0.3896484375 0.4453125 0.478515625 0.5244140625 0.587890625 0.6572265625 0.7685546875 0.802734375 0.8271484375 0.8515625 0.873046875 0.8994140625 0.9052734375,0.8268229166666666 0.8268229166666666 0.8268229166666666 0.8268229166666666 0.8268229166666666 0.8268229166666666 0.8268229166666666 0.8268229166666666 0.8268229166666666 0.8268229166666666 0.8255208333333334 0.8255208333333334 0.8255208333333334 0.8255208333333334 0.8255208333333334 0.8255208333333334 0.8255208333333334 0.8255208333333334 0.8255208333333334 0.8255208333333334 0.8255208333333334 0.8255208333333334 0.8255208333333334 0.8255208333333334 0.8255208333333334 0.8255208333333334 0.8138020833333334 0.74609375 0.6666666666666667 0.5651041666666667 0.34244791666666663 0.29296875 0.28255208333333337 0.27994791666666663 0.28255208333333337 0.28645833333333337 0.29036458333333337 0.29166666666666663 0.29166666666666663 0.29166666666666663 0.28645833333333337 0.27473958333333337 0.25260416666666663 0.22526041666666666 0.171875 0.15234375 0.13802083333333334 0.12760416666666666 0.1171875 0.10807291666666664 0.10677083333333336,0.0 20.0 40.0 60.0 80.0 100.0 120.0 140.0 160.0 180.0 200.0 220.0 240.0 260.0 280.0 300.0 320.0 340.0 360.0 380.0 400.0 420.0 440.0 460.0 480.0 500.0 520.0 540.0 560.0 580.0 600.0 620.0 640.0 660.0 680.0 700.0 720.0 740.0 760.0 780.0 800.0 820.0 840.0 860.0 880.0 900.0 920.0 940.0 960.0 980.0 1000.0
38.0,Iceland trip,1069.7000000000116,assoc_trial,t_s_02_1,10.0,competing,close,paired,t_s_02_1.jpg,sub-101,0.0,0.0,0.0,0.5029296875 0.5029296875 0.5048828125 0.505859375 0.505859375 0.505859375 0.505859375 0.505859375 0.505859375 0.505859375 0.505859375 0.5068359375 0.498046875 0.4716796875 0.4453125 0.2724609375 0.2373046875 0.1796875 0.1298828125 0.09765625 0.0849609375 0.0849609375 0.0849609375 0.0869140625 0.08984375 0.0908203125 0.091796875 0.091796875 0.091796875 0.0927734375 0.0966796875 0.0986328125 0.1005859375 0.1015625 0.1044921875 0.10546875 0.1064453125 0.1064453125 0.1064453125 0.1064453125 0.107421875 0.107421875 0.1083984375 0.1083984375,0.81640625 0.81640625 0.81640625 0.81640625 0.81640625 0.81640625 0.81640625 0.81640625 0.81640625 0.81640625 0.81640625 0.81640625 0.8046875 0.7825520833333334 0.7604166666666666 0.5546875 0.50390625 0.40625 0.31119791666666663 0.24479166666666666 0.2083333333333333 0.2083333333333333 0.20703125 0.20703125 0.2083333333333333 0.20963541666666666 0.20963541666666666 0.20963541666666666 0.20963541666666666 0.20963541666666666 0.20703125 0.2044270833333333 0.20182291666666666 0.19791666666666666 0.19140625 0.18619791666666666 0.18359375 0.1809895833333333 0.1796875 0.17708333333333334 0.17578125 0.17447916666666666 0.17447916666666666 0.17317708333333334,199.30000000001743 219.30000000001743 239.30000000001743 259.3000000000174 279.3000000000174 299.3000000000174 319.3000000000174 339.3000000000174 359.30000000001746 379.30000000001746 399.30000000001746 419.30000000001746 439.30000000001746 459.30000000001746 479.30000000001746 499.30000000001746 519.3000000000175 539.3000000000175 559.3000000000175 579.3000000000175 599.3000000000175 619.3000000000175 639.3000000000175 659.3000000000175 679.3000000000175 699.3000000000176 719.3000000000176 739.3000000000176 759.3000000000176 779.3000000000176 799.3000000000176 819.3000000000176 839.3000000000176 859.3000000000176 879.3000000000176 899.3000000000176 919.3000000000177 939.3000000000177 959.3000000000177 979.3000000000177 999.3000000000177 1019.3000000000177 1039.3000000000177 1059.3000000000177
39.0,Miami trip,1165.8999999880907,assoc_trial,t_m_07_1,10.0,unique,close,paired,t_m_07_1.jpg,sub-101,1.0,1.0,1.0,0.533203125 0.533203125 0.533203125 0.533203125 0.533203125 0.533203125 0.533203125 0.533203125 0.533203125 0.533203125 0.533203125 0.533203125 0.533203125 0.533203125 0.533203125 0.533203125 0.533203125 0.533203125 0.533203125 0.533203125 0.533203125 0.533203125 0.533203125 0.5322265625 0.52734375 0.5244140625 0.5224609375 0.521484375 0.521484375 0.5341796875 0.5625 0.599609375 0.6455078125 0.689453125 0.7412109375 0.75 0.755859375 0.7626953125 0.767578125 0.775390625 0.779296875 0.78125 0.7841796875 0.78515625 0.7890625 0.7919921875 0.7978515625 0.8076171875 0.8349609375 0.8447265625 0.8544921875 0.859375 0.861328125,0.8541666666666666 0.8528645833333334 0.8528645833333334 0.8515625 0.8515625 0.8515625 0.8515625 0.8515625 0.8515625 0.8502604166666666 0.8502604166666666 0.84765625 0.8463541666666666 0.8450520833333334 0.8424479166666666 0.83984375 0.8385416666666666 0.8372395833333334 0.8346354166666666 0.8307291666666666 0.8268229166666666 0.82421875 0.8203125 0.8151041666666666 0.7981770833333334 0.7838541666666666 0.76953125 0.7552083333333334 0.7395833333333333 0.6979166666666667 0.6419270833333333 0.5794270833333333 0.5065104166666667 0.4361979166666666 0.33984375 0.30729166666666663 0.27864583333333337 0.25260416666666663 0.2278645833333333 0.19401041666666666 0.18229166666666666 0.17447916666666666 0.16666666666666666 0.1640625 0.15755208333333334 0.15364583333333334 0.1484375 0.13802083333333334 0.12239583333333336 0.11848958333333336 0.1171875 0.11588541666666664 0.11588541666666664,100.70000000001164 120.70000000001164 140.70000000001164 160.7000000000116 180.70000000001164 200.70000000001164 220.70000000001164 240.70000000001164 260.70000000001164 280.70000000001164 300.70000000001164 320.70000000001164 340.70000000001164 360.7000000000117 380.7000000000117 400.7000000000117 420.7000000000117 440.7000000000117 460.7000000000117 480.7000000000117 500.7000000000117 520.7000000000116 540.7000000000116 560.7000000000116 580.7000000000116 600.7000000000116 620.7000000000116 640.7000000000116 660.7000000000116 680.7000000000116 700.7000000000116 720.7000000000116 740.7000000000116 760.7000000000116 780.7000000000116 800.7000000000116 820.7000000000116 840.7000000000116 860.7000000000116 880.7000000000116 900.7000000000116 920.7000000000116 940.7000000000116 960.7000000000116 980.7000000000116 1000.7000000000116 1020.7000000000116 1040.7000000000116 1060.7000000000116 1080.7000000000116 1100.7000000000116 1120.7000000000116 1140.7000000000114
40.0,Iceland trip,1490.8999999999942,assoc_trial,t_s_14_2,10.0,competing,close,paired,t_s_14_2.jpg,sub-101,1.0,0.0,0.0,0.5 0.5 0.4873046875 0.4833984375 0.470703125 0.453125 0.3896484375 0.3466796875 0.302734375 0.2607421875 0.2001953125 0.1796875 0.16796875 0.158203125 0.1552734375 0.154296875 0.154296875 0.1533203125 0.1494140625 0.140625 0.123046875 0.111328125 0.1005859375 0.091796875 0.0810546875 0.0791015625 0.0791015625 0.0791015625 0.0791015625 0.0791015625 0.0791015625 0.0791015625 0.0791015625 0.0791015625 0.0791015625 0.0791015625 0.0791015625 0.0791015625 0.0791015625 0.099609375 0.1162109375 0.1318359375 0.140625 0.1435546875,0.7994791666666666 0.7994791666666666 0.7760416666666666 0.7682291666666666 0.7447916666666667 0.7096354166666667 0.59375 0.515625 0.4361979166666666 0.3671875 0.25911458333333337 0.2265625 0.20572916666666666 0.1888020833333333 0.1848958333333333 0.18229166666666666 0.18229166666666666 0.1809895833333333 0.17447916666666666 0.16276041666666666 0.13020833333333334 0.11328125 0.09505208333333336 0.07942708333333337 0.05729166666666662 0.0546875 0.05338541666666663 0.05338541666666663 0.05338541666666663 0.05338541666666663 0.05338541666666663 0.05338541666666663 0.05338541666666663 0.05338541666666663 0.05338541666666663 0.05338541666666663 0.05338541666666663 0.05338541666666663 0.05338541666666663 0.07291666666666663 0.08984375 0.10286458333333336 0.11328125 0.1171875,596.8999999999943 616.8999999999943 636.8999999999943 656.8999999999943 676.8999999999943 696.8999999999942 716.8999999999942 736.8999999999942 756.8999999999942 776.8999999999942 796.8999999999942 816.8999999999942 836.8999999999942 856.8999999999942 876.8999999999942 896.8999999999942 916.8999999999944 936.8999999999944 956.8999999999944 976.8999999999944 996.8999999999944 1016.8999999999944 1036.8999999999942 1056.8999999999942 1076.8999999999942 1096.8999999999942 1116.8999999999942 1136.8999999999942 1156.8999999999942 1176.8999999999942 1196.8999999999942 1216.8999999999942 1236.8999999999942 1256.8999999999942 1276.8999999999942 1296.8999999999942 1316.8999999999942 1336.8999999999942 1356.8999999999942 1376.8999999999942 1396.8999999999942 1416.8999999999942 1436.8999999999942 1456.8999999999942
41.0,Iceland trip,1279.0,assoc_trial,t_m_19_2,10.0,unique,far,paired,t_m_19_2.jpg,sub-101,0.0,0.0,0.0,0.5009765625 0.5009765625 0.484375 0.4755859375 0.4462890625 0.361328125 0.318359375 0.2861328125 0.2607421875 0.2431640625 0.23046875 0.2294921875 0.2294921875 0.2294921875 0.2294921875 0.2294921875 0.2294921875 0.2294921875 0.2294921875 0.2294921875 0.2294921875 0.228515625 0.2275390625 0.224609375 0.2216796875 0.212890625 0.2060546875 0.2001953125 0.1943359375 0.1806640625 0.1748046875 0.1689453125 0.162109375 0.1533203125 0.140625 0.12109375 0.1162109375 0.11328125 0.111328125,0.8072916666666666 0.8072916666666666 0.7760416666666666 0.75390625 0.6888020833333333 0.50390625 0.4244791666666666 0.3671875 0.328125 0.30598958333333337 0.28515625 0.28515625 0.28515625 0.28515625 0.28515625 0.28515625 0.28515625 0.28515625 0.28515625 0.28385416666666663 0.27994791666666663 0.27604166666666663 0.2734375 0.26041666666666663 0.2473958333333333 0.21744791666666666 0.20182291666666666 0.18619791666666666 0.17447916666666666 0.15104166666666666 0.14192708333333334 0.13411458333333334 0.125 0.11328125 0.09375 0.07291666666666663 0.06640625 0.0625 0.06119791666666662,415.59999999997666 435.59999999997666 455.59999999997666 475.59999999997666 495.59999999997666 515.5999999999766 535.5999999999766 555.5999999999766 575.5999999999767 595.5999999999767 615.5999999999767 635.5999999999767 655.5999999999767 675.5999999999767 695.5999999999768 715.5999999999768 735.5999999999768 755.5999999999768 775.5999999999768 795.5999999999768 815.5999999999768 835.5999999999768 855.5999999999768 875.5999999999768 895.5999999999768 915.5999999999768 935.5999999999768 955.5999999999768 975.5999999999768 995.5999999999768 1015.5999999999768 1035.5999999999767 1055.5999999999767 1075.5999999999767 1095.5999999999767 1115.5999999999767 1135.5999999999767 1155.5999999999767 1175.5999999999767
42.0,Iceland trip,1327.4000000000233,assoc_trial,t_i_14_2,10.0,unique,close,paired,t_i_14_2.jpg,sub-101,1.0,1.0,1.0,0.48828125 0.482421875 0.470703125 0.4541015625 0.416015625 0.3505859375 0.255859375 0.22265625 0.2021484375 0.1904296875 0.18359375 0.181640625 0.1796875 0.1767578125 0.173828125 0.1669921875 0.1650390625 0.1640625 0.1640625 0.1640625 0.1640625 0.1640625 0.1640625 0.1640625 0.1640625 0.1640625 0.1640625 0.1640625 0.1650390625 0.16796875 0.169921875 0.1708984375 0.1708984375 0.1708984375 0.171875,0.8125 0.8072916666666666 0.7981770833333334 0.7786458333333334 0.7356770833333333 0.6419270833333333 0.4947916666666666 0.43098958333333337 0.3854166666666666 0.35026041666666663 0.3125 0.29817708333333337 0.28515625 0.26953125 0.25520833333333337 0.22916666666666666 0.22265625 0.21744791666666666 0.21484375 0.21354166666666666 0.21354166666666666 0.2122395833333333 0.20963541666666666 0.20963541666666666 0.20572916666666666 0.19401041666666666 0.1888020833333333 0.18359375 0.17838541666666666 0.17317708333333334 0.16536458333333334 0.16276041666666666 0.16276041666666666 0.16276041666666666 0.16145833333333334,464.2000000000117 484.2000000000117 504.2000000000117 524.2000000000116 544.2000000000116 564.2000000000116 584.2000000000116 604.2000000000116 624.2000000000116 644.2000000000116 664.2000000000116 684.2000000000116 704.2000000000116 724.2000000000116 744.2000000000116 764.2000000000116 784.2000000000116 804.2000000000116 824.2000000000116 844.2000000000116 864.2000000000116 884.2000000000116 904.2000000000116 924.2000000000116 944.2000000000116 964.2000000000116 984.2000000000116 1004.2000000000116 1024.2000000000116 1044.2000000000116 1064.2000000000116 1084.2000000000116 1104.2000000000116 1124.2000000000116 1144.2000000000114
43.0,Iceland trip,972.6999999880792,assoc_trial,t_s_03_2,10.0,competing,close,paired,t_s_03_2.jpg,sub-101,1.0,1.0,0.0,0.4990234375 0.4951171875 0.4794921875 0.470703125 0.4375 0.32421875 0.2744140625 0.2314453125 0.1962890625 0.173828125 0.1494140625 0.1484375 0.1484375 0.15234375 0.1552734375 0.1591796875 0.16015625 0.16015625 0.16015625 0.16015625 0.16015625 0.16015625 0.16015625 0.16015625 0.16015625 0.1611328125 0.154296875 0.154296875 0.1474609375 0.1328125 0.1279296875 0.125 0.1240234375 0.1220703125 0.12109375 0.1201171875,0.8111979166666666 0.8111979166666666 0.8111979166666666 0.8111979166666666 0.8098958333333334 0.7408854166666667 0.6848958333333333 0.609375 0.5143229166666667 0.4244791666666666 0.27604166666666663 0.24088541666666666 0.2109375 0.2005208333333333 0.19401041666666666 0.1888020833333333 0.1875 0.1875 0.1875 0.1875 0.1875 0.1875 0.1875 0.1875 0.1875 0.1875 0.17708333333333334 0.17708333333333334 0.16796875 0.15364583333333334 0.14713541666666666 0.14322916666666666 0.14192708333333334 0.140625 0.13932291666666666 0.13802083333333334,183.0 203.0 223.0 243.0 263.0 283.0 303.0 323.0 343.0 363.0 383.0 403.0 423.0 443.0 463.0 483.0 503.0 523.0 543.0 563.0 583.0 603.0 623.0 643.0 663.0 683.0 703.0 723.0 743.0 763.0 783.0 803.0 823.0 843.0 863.0 883.0
44.0,Iceland trip,1085.8000000059546,assoc_trial,t_s_20_2,10.0,competing,far,paired,t_s_20_2.jpg,sub-101,1.0,0.0,0.0,0.4873046875 0.4873046875 0.4912109375 0.4921875 0.4931640625 0.4951171875 0.4951171875 0.4951171875 0.4951171875 0.4951171875 0.4951171875 0.4951171875 0.4951171875 0.4951171875 0.4951171875 0.4951171875 0.4951171875 0.4951171875 0.4873046875 0.447265625 0.3486328125 0.28515625 0.228515625 0.1796875 0.1123046875 0.099609375 0.0947265625 0.09375 0.09375 0.0966796875 0.09765625 0.099609375 0.1015625 0.1015625 0.103515625 0.103515625 0.1044921875 0.1044921875 0.1044921875 0.10546875 0.1064453125,0.7877604166666666 0.7877604166666666 0.7916666666666666 0.79296875 0.7942708333333334 0.796875 0.796875 0.796875 0.796875 0.796875 0.796875 0.796875 0.796875 0.796875 0.796875 0.796875 0.796875 0.796875 0.79296875 0.7552083333333334 0.6184895833333333 0.5143229166666667 0.40755208333333337 0.31901041666666663 0.19010416666666666 0.16145833333333334 0.14453125 0.13671875 0.13151041666666666 0.12109375 0.11848958333333336 0.11197916666666664 0.10807291666666664 0.10677083333333336 0.10416666666666664 0.10286458333333336 0.10286458333333336 0.10286458333333336 0.10286458333333336 0.10286458333333336 0.10286458333333336,249.79999999998842 269.7999999999884 289.79999999998836 309.79999999998836 329.79999999998836 349.7999999999884 369.7999999999884 389.7999999999884 409.7999999999884 429.7999999999884 449.7999999999884 469.7999999999884 489.7999999999884 509.7999999999884 529.7999999999884 549.7999999999884 569.7999999999884 589.7999999999884 609.7999999999884 629.7999999999884 649.7999999999884 669.7999999999884 689.7999999999884 709.7999999999884 729.7999999999884 749.7999999999884 769.7999999999884 789.7999999999884 809.7999999999884 829.7999999999884 849.7999999999884 869.7999999999884 889.7999999999884 909.7999999999884 929.7999999999884 949.7999999999884 969.7999999999884 989.7999999999884 1009.7999999999884 1029.7999999999884 1049.7999999999884
45.0,Iceland trip,958.2000000059488,assoc_trial,t_s_16_1,10.0,competing,close,paired,t_s_16_1.jpg,sub-101,0.0,1.0,1.0,0.4677734375 0.4697265625 0.4716796875 0.4755859375 0.4814453125 0.5029296875 0.515625 0.51953125 0.5224609375 0.5224609375 0.5224609375 0.5224609375 0.5224609375 0.5224609375 0.5224609375 0.5224609375 0.5146484375 0.4921875 0.4140625 0.3095703125 0.244140625 0.1953125 0.162109375 0.16015625 0.16015625 0.16015625 0.16015625 0.16015625 0.16015625 0.16015625 0.16015625 0.16015625 0.16015625 0.1611328125 0.1611328125 0.16015625 0.1572265625 0.1552734375 0.154296875 0.154296875,0.83984375 0.83984375 0.83984375 0.83984375 0.83984375 0.84765625 0.8528645833333334 0.8541666666666666 0.85546875 0.85546875 0.85546875 0.85546875 0.85546875 0.85546875 0.85546875 0.85546875 0.84765625 0.8255208333333334 0.73046875 0.5481770833333333 0.41796875 0.30989583333333337 0.2356770833333333 0.2278645833333333 0.2265625 0.2265625 0.2265625 0.2265625 0.22526041666666666 0.22526041666666666 0.22526041666666666 0.22526041666666666 0.22526041666666666 0.22265625 0.203125 0.1966145833333333 0.1875 0.1809895833333333 0.17838541666666666 0.17708333333333334,67.5 87.5 107.5 127.5 147.5 167.5 187.5 207.5 227.5 247.5 267.5 287.5 307.5 327.5 347.5 367.5 387.5 407.5 427.5 447.5 467.5 487.5 507.5 527.5 547.5 567.5 587.5 607.5 627.5 647.5 667.5 687.5 707.5 727.5 747.5 767.5 787.5 807.5 827.5 847.5
46.0,Iceland trip,1006.3000000059546,assoc_trial,t_i_20_2,10.0,unique,far,paired,t_i_20_2.jpg,sub-101,1.0,1.0,1.0,0.466796875 0.466796875 0.466796875 0.466796875 0.466796875 0.466796875 0.466796875 0.466796875 0.466796875 0.466796875 0.466796875 0.466796875 0.466796875 0.466796875 0.4658203125 0.45703125 0.4423828125 0.404296875 0.3037109375 0.2109375 0.0458984375 0.0166015625 0.009765625 0.009765625 0.0146484375 0.0244140625 0.037109375 0.05078125 0.064453125 0.087890625 0.099609375 0.1044921875 0.109375 0.1123046875 0.1171875 0.1171875 0.1171875 0.1171875 0.1171875 0.1181640625 0.119140625 0.12109375 0.123046875,0.85546875 0.85546875 0.85546875 0.85546875 0.85546875 0.85546875 0.85546875 0.85546875 0.85546875 0.85546875 0.8541666666666666 0.8541666666666666 0.8541666666666666 0.8541666666666666 0.8528645833333334 0.8450520833333334 0.8255208333333334 0.7708333333333334 0.6276041666666667 0.5065104166666667 0.296875 0.25911458333333337 0.2434895833333333 0.2395833333333333 0.2317708333333333 0.2278645833333333 0.22526041666666666 0.2200520833333333 0.21484375 0.19921875 0.18619791666666666 0.17838541666666666 0.16796875 0.15625 0.13541666666666666 0.12760416666666666 0.12369791666666664 0.11848958333333336 0.11458333333333336 0.11458333333333336 0.11458333333333336 0.11588541666666664 0.11979166666666664,133.19999999998254 153.19999999998254 173.19999999998254 193.19999999998254 213.19999999998254 233.19999999998254 253.19999999998254 273.19999999998254 293.1999999999825 313.1999999999825 333.1999999999825 353.19999999998254 373.19999999998254 393.19999999998254 413.19999999998254 433.19999999998254 453.19999999998254 473.19999999998254 493.19999999998254 513.1999999999825 533.1999999999825 553.1999999999825 573.1999999999825 593.1999999999825 613.1999999999825 633.1999999999825 653.1999999999825 673.1999999999825 693.1999999999824 713.1999999999824 733.1999999999824 753.1999999999824 773.1999999999824 793.1999999999824 813.1999999999824 833.1999999999824 853.1999999999824 873.1999999999824 893.1999999999824 913.1999999999823 933.1999999999823 953.1999999999823 973.1999999999823
47.0,Iceland trip,1273.9999999940335,assoc_trial,t_m_16_2,10.0,unique,far,paired,t_m_16_2.jpg,sub-101,0.0,0.0,0.0,0.4853515625 0.484375 0.484375 0.4833984375 0.4814453125 0.4765625 0.4677734375 0.4609375 0.4521484375 0.4384765625 0.3955078125 0.3671875 0.33984375 0.318359375 0.3017578125 0.287109375 0.28515625 0.28515625 0.28515625 0.28515625 0.28515625 0.28515625 0.28515625 0.28515625 0.28515625 0.2841796875 0.283203125 0.283203125 0.279296875 0.2744140625 0.2578125 0.24609375 0.236328125 0.2255859375 0.212890625 0.20703125 0.2021484375 0.1953125 0.189453125 0.177734375 0.1748046875 0.171875 0.169921875 0.16796875 0.1640625 0.1640625 0.1630859375 0.162109375 0.1611328125 0.16015625,0.8125 0.80859375 0.80859375 0.8059895833333334 0.8033854166666666 0.796875 0.78515625 0.7708333333333334 0.75 0.71484375 0.5716145833333333 0.4778645833333334 0.36067708333333337 0.26171875 0.18359375 0.10807291666666664 0.10286458333333336 0.1015625 0.1015625 0.1015625 0.1015625 0.1015625 0.1015625 0.1015625 0.1015625 0.10026041666666664 0.1015625 0.10286458333333336 0.10807291666666664 0.11458333333333336 0.13411458333333334 0.14322916666666666 0.14973958333333334 0.15364583333333334 0.15885416666666666 0.16015625 0.16145833333333334 0.16276041666666666 0.1640625 0.1640625 0.1640625 0.1640625 0.1640625 0.1640625 0.1640625 0.1640625 0.1640625 0.1640625 0.16276041666666666 0.16276041666666666,182.69999999998254 202.69999999998254 222.69999999998254 242.69999999998254 262.69999999998254 282.6999999999825 302.6999999999825 322.6999999999825 342.6999999999825 362.69999999998254 382.69999999998254 402.69999999998254 422.69999999998254 442.69999999998254 462.69999999998254 482.69999999998254 502.69999999998254 522.6999999999825 542.6999999999825 562.6999999999825 582.6999999999825 602.6999999999825 622.6999999999825 642.6999999999825 662.6999999999825 682.6999999999825 702.6999999999824 722.6999999999824 742.6999999999824 762.6999999999824 782.6999999999824 802.6999999999824 822.6999999999824 842.6999999999824 862.6999999999824 882.6999999999824 902.6999999999823 922.6999999999823 942.6999999999823 962.6999999999823 982.6999999999823 1002.6999999999823 1022.6999999999823 1042.6999999999823 1062.6999999999823 1082.6999999999823 1102.6999999999823 1122.6999999999823 1142.6999999999825 1162.6999999999825
48.0,Iceland trip,994.7999999999593,assoc_trial,t_s_09_1,10.0,competing,close,paired,t_s_09_1.jpg,sub-101,1.0,1.0,0.0,0.5078125 0.5078125 0.5078125 0.5078125 0.5078125 0.5078125 0.5078125 0.5078125 0.5068359375 0.5068359375 0.5048828125 0.501953125 0.5 0.49609375 0.4912109375 0.4482421875 0.4150390625 0.3935546875 0.349609375 0.2802734375 0.181640625 0.154296875 0.154296875 0.14453125 0.1396484375 0.13671875 0.1357421875 0.134765625 0.1337890625 0.1337890625 0.130859375 0.130859375 0.1298828125 0.1279296875 0.1279296875 0.1259765625 0.1240234375 0.1220703125 0.1181640625 0.111328125 0.107421875 0.103515625 0.09765625 0.0908203125 0.087890625 0.087890625 0.087890625,0.83203125 0.83203125 0.83203125 0.8294270833333334 0.828125 0.82421875 0.8229166666666666 0.8203125 0.8177083333333334 0.81640625 0.8111979166666666 0.8072916666666666 0.8020833333333334 0.7981770833333334 0.79296875 0.76171875 0.7356770833333333 0.71484375 0.6692708333333333 0.5833333333333333 0.44270833333333337 0.38671875 0.38671875 0.36328125 0.34114583333333337 0.31510416666666663 0.30598958333333337 0.29817708333333337 0.2890625 0.28255208333333337 0.265625 0.26171875 0.25520833333333337 0.2473958333333333 0.24088541666666666 0.22526041666666666 0.2161458333333333 0.20703125 0.19791666666666666 0.1809895833333333 0.17447916666666666 0.16796875 0.16015625 0.15104166666666666 0.14192708333333334 0.13932291666666666 0.13802083333333334,0.0 20.0 40.0 60.0 80.0 100.0 120.0 140.0 160.0 180.0 200.0 220.0 240.0 260.0 280.0 300.0 320.0 340.0 360.0 380.0 400.0 420.0 440.0 460.0 480.0 500.0 520.0 540.0 560.0 580.0 600.0 620.0 640.0 660.0 680.0 700.0 720.0 740.0 760.0 780.0 800.0 820.0 840.0 860.0 880.0 900.0 920.0
49.0,Iceland trip,1303.8999999940281,assoc_trial,t_m_03_1,10.0,unique,close,paired,t_m_03_1.jpg,sub-101,1.0,0.0,0.0,0.5078125 0.5078125 0.5078125 0.5078125 0.5078125 0.5078125 0.5078125 0.5078125 0.509765625 0.509765625 0.509765625 0.509765625 0.509765625 0.509765625 0.509765625 0.509765625 0.509765625 0.509765625 0.509765625 0.509765625 0.509765625 0.509765625 0.509765625 0.509765625 0.509765625 0.5009765625 0.4228515625 0.39453125 0.3291015625 0.193359375 0.146484375 0.1083984375 0.107421875 0.11328125 0.138671875 0.150390625 0.1611328125 0.1708984375 0.1806640625 0.1875 0.1884765625 0.1884765625 0.1884765625 0.1884765625 0.1884765625 0.1884765625 0.1884765625 0.1884765625 0.1884765625 0.1884765625 0.1904296875 0.1923828125 0.1923828125 0.1923828125 0.19140625 0.1865234375 0.1796875 0.171875 0.1630859375 0.162109375,0.8216145833333334 0.8216145833333334 0.8216145833333334 0.8216145833333334 0.8216145833333334 0.8216145833333334 0.8216145833333334 0.8216145833333334 0.8216145833333334 0.8216145833333334 0.8216145833333334 0.8216145833333334 0.8216145833333334 0.8216145833333334 0.8216145833333334 0.8216145833333334 0.8216145833333334 0.8216145833333334 0.8216145833333334 0.8216145833333334 0.8216145833333334 0.8216145833333334 0.8216145833333334 0.8216145833333334 0.8216145833333334 0.8216145833333334 0.7916666666666666 0.7682291666666666 0.7018229166666667 0.515625 0.42317708333333337 0.31640625 0.26432291666666663 0.2265625 0.17708333333333334 0.15885416666666666 0.14583333333333334 0.13541666666666666 0.12890625 0.125 0.12369791666666664 0.12369791666666664 0.12369791666666664 0.12369791666666664 0.12369791666666664 0.12369791666666664 0.12239583333333336 0.11979166666666664 0.11848958333333336 0.11588541666666664 0.11588541666666664 0.11588541666666664 0.11848958333333336 0.12109375 0.12760416666666666 0.13020833333333334 0.13151041666666666 0.13411458333333334 0.13541666666666666 0.13541666666666666,0.0 20.0 40.0 60.0 80.0 100.0 120.0 140.0 160.0 180.0 200.0 220.0 240.0 260.0 280.0 300.0 320.0 340.0 360.0 380.0 400.0 420.0 440.0 460.0 480.0 500.0 520.0 540.0 560.0 580.0 600.0 620.0 640.0 660.0 680.0 700.0 720.0 740.0 760.0 780.0 800.0 820.0 840.0 860.0 880.0 900.0 920.0 940.0 960.0 980.0 1000.0 1020.0 1040.0 1060.0 1080.0 1100.0 1120.0 1140.0 1160.0 1180.0
50.0,Iceland trip,1584.5,assoc_trial,t_m_06_2,10.0,unique,close,paired,t_m_06_2.jpg,sub-101,1.0,0.0,0.0,0.48828125 0.48828125 0.48828125 0.48828125 0.48828125 0.48828125 0.48828125 0.48828125 0.48828125 0.48828125 0.48828125 0.48828125 0.48828125 0.4892578125 0.490234375 0.4921875 0.4931640625 0.4931640625 0.4931640625 0.4931640625 0.4931640625 0.4931640625 0.494140625 0.494140625 0.478515625 0.4296875 0.3671875 0.310546875 0.2587890625 0.193359375 0.1845703125 0.1826171875 0.1826171875 0.18359375 0.18359375 0.1865234375 0.1875 0.189453125 0.189453125 0.1904296875 0.1904296875 0.1904296875 0.1904296875 0.1904296875 0.1904296875 0.1904296875 0.1904296875 0.1904296875 0.1904296875 0.1904296875 0.1904296875 0.1904296875 0.1904296875 0.1904296875 0.1904296875 0.1904296875 0.1904296875 0.1904296875 0.1904296875 0.1865234375 0.1865234375 0.185546875 0.185546875 0.185546875 0.185546875 0.185546875 0.185546875 0.185546875 0.185546875 0.185546875 0.185546875 0.185546875 0.1826171875 0.1640625 0.1640625 0.1630859375,0.83203125 0.83203125 0.83203125 0.83203125 0.83203125 0.83203125 0.83203125 0.83203125 0.83203125 0.83203125 0.83203125 0.83203125 0.8307291666666666 0.8294270833333334 0.828125 0.828125 0.828125 0.828125 0.828125 0.828125 0.828125 0.828125 0.8268229166666666 0.8268229166666666 0.8059895833333334 0.7278645833333333 0.6145833333333333 0.484375 0.3697916666666666 0.20572916666666666 0.16666666666666666 0.15234375 0.1484375 0.14583333333333334 0.14583333333333334 0.14713541666666666 0.1484375 0.15104166666666666 0.15234375 0.15364583333333334 0.15364583333333334 0.15364583333333334 0.15364583333333334 0.15364583333333334 0.15364583333333334 0.15364583333333334 0.15364583333333334 0.15364583333333334 0.15364583333333334 0.15364583333333334 0.15364583333333334 0.15364583333333334 0.15364583333333334 0.15364583333333334 0.15364583333333334 0.15364583333333334 0.15364583333333334 0.15364583333333334 0.15494791666666666 0.15625 0.15625 0.15625 0.15625 0.15625 0.15625 0.15625 0.15625 0.15625 0.15625 0.15625 0.15625 0.15625 0.15625 0.15625 0.15625 0.15755208333333334,0.0 20.0 40.0 60.0 80.0 100.0 120.0 140.0 160.0 180.0 200.0 220.0 240.0 260.0 280.0 300.0 320.0 340.0 360.0 380.0 400.0 420.0 440.0 460.0 480.0 500.0 520.0 540.0 560.0 580.0 600.0 620.0 640.0 660.0 680.0 700.0 720.0 740.0 760.0 780.0 800.0 820.0 840.0 860.0 880.0 900.0 920.0 940.0 960.0 980.0 1000.0 1020.0 1040.0 1060.0 1080.0 1100.0 1120.0 1140.0 1160.0 1180.0 1200.0 1220.0 1240.0 1260.0 1280.0 1300.0 1320.0 1340.0 1360.0 1380.0 1400.0 1420.0 1440.0 1460.0 1480.0 1500.0
51.0,Iceland trip,943.600000005972,assoc_trial,t_s_18_2,10.0,competing,far,paired,t_s_18_2.jpg,sub-101,1.0,0.0,0.0,0.48828125 0.48828125 0.48828125 0.486328125 0.482421875 0.478515625 0.466796875 0.455078125 0.4384765625 0.4130859375 0.3505859375 0.3134765625 0.2724609375 0.2412109375 0.2158203125 0.1982421875 0.1884765625 0.185546875 0.1796875 0.1689453125 0.1435546875 0.1298828125 0.115234375 0.1123046875 0.107421875 0.1044921875 0.1044921875,0.8541666666666666 0.8541666666666666 0.8489583333333334 0.8450520833333334 0.8359375 0.828125 0.8059895833333334 0.7838541666666666 0.7486979166666667 0.7018229166666667 0.578125 0.515625 0.4401041666666666 0.3828125 0.33333333333333337 0.28776041666666663 0.25520833333333337 0.24609375 0.2317708333333333 0.20963541666666666 0.16536458333333334 0.14322916666666666 0.11979166666666664 0.11328125 0.10286458333333336 0.09765625 0.09505208333333336,248.70000000001164 268.70000000001164 288.70000000001164 308.70000000001164 328.70000000001164 348.7000000000116 368.7000000000117 388.7000000000117 408.7000000000117 428.7000000000117 448.7000000000117 468.7000000000117 488.7000000000117 508.7000000000117 528.7000000000116 548.7000000000116 568.7000000000116 588.7000000000116 608.7000000000116 628.7000000000116 648.7000000000116 668.7000000000116 688.7000000000116 708.7000000000116 728.7000000000116 748.7000000000116 768.7000000000116
52.0,Iceland trip,1523.1999999999825,assoc_trial,t_s_08_1,10.0,competing,far,paired,t_s_08_1.jpg,sub-101,1.0,0.0,0.0,0.4921875 0.4912109375 0.4873046875 0.4814453125 0.46875 0.4111328125 0.3759765625 0.3369140625 0.3056640625 0.28125 0.2509765625 0.24609375 0.2431640625 0.240234375 0.236328125 0.2265625 0.2216796875 0.2197265625 0.216796875 0.2158203125 0.21484375 0.2138671875 0.2109375 0.2060546875 0.2021484375 0.1943359375 0.193359375 0.1923828125 0.1923828125 0.1904296875 0.1884765625 0.1875 0.185546875 0.185546875 0.185546875 0.185546875 0.185546875 0.185546875 0.185546875 0.185546875 0.185546875 0.185546875 0.185546875 0.185546875 0.185546875 0.185546875 0.185546875 0.185546875 0.185546875 0.185546875 0.185546875 0.1845703125 0.181640625 0.1767578125 0.1728515625 0.171875,0.8020833333333334 0.7981770833333334 0.7916666666666666 0.7799479166666666 0.75390625 0.6354166666666667 0.5455729166666667 0.4622395833333334 0.38671875 0.328125 0.23697916666666666 0.21484375 0.2005208333333333 0.19140625 0.18359375 0.17057291666666666 0.1640625 0.16145833333333334 0.15885416666666666 0.15755208333333334 0.15755208333333334 0.15494791666666666 0.15364583333333334 0.15234375 0.1484375 0.14453125 0.14453125 0.14453125 0.14453125 0.14322916666666666 0.14322916666666666 0.14322916666666666 0.14192708333333334 0.140625 0.140625 0.140625 0.140625 0.140625 0.140625 0.140625 0.140625 0.140625 0.140625 0.140625 0.140625 0.140625 0.140625 0.140625 0.140625 0.140625 0.140625 0.140625 0.140625 0.140625 0.140625 0.140625,364.1000000000058 384.1000000000058 404.1000000000058 424.1000000000058 444.1000000000058 464.1000000000058 484.1000000000058 504.1000000000058 524.1000000000058 544.1000000000058 564.1000000000057 584.1000000000057 604.1000000000057 624.1000000000057 644.1000000000057 664.1000000000057 684.1000000000057 704.1000000000058 724.1000000000058 744.1000000000058 764.1000000000058 784.1000000000058 804.1000000000058 824.1000000000058 844.1000000000058 864.1000000000058 884.1000000000058 904.1000000000058 924.1000000000058 944.1000000000058 964.1000000000058 984.1000000000058 1004.1000000000058 1024.1000000000058 1044.1000000000058 1064.1000000000058 1084.1000000000058 1104.1000000000058 1124.1000000000058 1144.1000000000058 1164.1000000000058 1184.1000000000058 1204.1000000000058 1224.1000000000058 1244.1000000000058 1264.1000000000058 1284.1000000000058 1304.1000000000058 1324.1000000000058 1344.1000000000058 1364.1000000000058 1384.1000000000058 1404.1000000000058 1424.1000000000058 1444.1000000000058 1464.1000000000058
