Current Spreadsheet,Trial Number,Display,Screen,Response Type,Response,Reaction Time,display,block,block_trial,stimulus_id,expected_goal,fold,stimulus_name,c_group,condition,within_block_dist,paired_status,stimulus_path,expected_location,block_split,respStim_1,respStim_2,sub_label,acc,both_enc_acc,assoc_stim1_acc,assoc_stim2_acc,x_pos,y_pos,time_trajectories
cb_06,1.0,enc_trial,stim,response,STEM students,1538.3000000059546,enc_trial,1.0,1.0,s_s_14_1,student_stem,fold-e,funnel,6.0,unique,close,paired,s_s_14_1.jpg,stem,student-b1,STEM students,Fine Arts students,sub-56,1.0,1.0,1.0,1.0,0.512987012987013 0.515422077922078 0.515422077922078 0.515422077922078 0.515422077922078 0.515422077922078 0.515422077922078 0.515422077922078 0.515422077922078 0.515422077922078 0.515422077922078 0.5162337662337663 0.5219155844155844 0.5251623376623377 0.5324675324675324 0.5373376623376623 0.5373376623376623 0.5373376623376623 0.5373376623376623 0.5373376623376623 0.5357142857142857 0.5357142857142857 0.5349025974025974 0.5349025974025974 0.5397727272727273 0.6038961038961039 0.6152597402597403 0.6420454545454546 0.6631493506493507 0.7037337662337663 0.7224025974025974 0.7605519480519479 0.7727272727272727 0.7735389610389609 0.7686688311688312 0.7297077922077922 0.5551948051948052 0.4780844155844156 0.3920454545454545 0.3522727272727273 0.2711038961038961 0.26136363636363635 0.26055194805194803 0.25405844155844154 0.2459415584415585 0.2426948051948052 0.24025974025974026 0.2313311688311689 0.21915584415584416 0.21428571428571427 0.18993506493506493 0.1801948051948052 0.1728896103896104 0.16964285714285715 0.16477272727272727 0.15178571428571427 0.14204545454545456 0.13636363636363635,0.8290043290043292 0.8268398268398268 0.8268398268398268 0.8268398268398268 0.8268398268398268 0.8268398268398268 0.8268398268398268 0.8268398268398268 0.8268398268398268 0.8268398268398268 0.8268398268398268 0.8279220779220781 0.8333333333333334 0.841991341991342 0.8441558441558441 0.8441558441558441 0.8441558441558441 0.8441558441558441 0.8441558441558441 0.8441558441558441 0.8246753246753247 0.8041125541125541 0.7813852813852814 0.7554112554112554 0.7142857142857143 0.4870129870129871 0.4512987012987013 0.3744588744588745 0.33333333333333337 0.2846320346320347 0.2683982683982684 0.2467532467532467 0.2456709956709957 0.2456709956709957 0.2456709956709957 0.2456709956709957 0.24783549783549785 0.2467532467532467 0.2467532467532467 0.2467532467532467 0.2467532467532467 0.2413419913419913 0.2370129870129869 0.22510822510822515 0.21645021645021645 0.21103896103896105 0.2056277056277056 0.19805194805194806 0.19047619047619047 0.1872294372294372 0.17748917748917747 0.17532467532467533 0.17207792207792205 0.1699134199134199 0.16883116883116878 0.16883116883116878 0.16883116883116878 0.16883116883116878,350.0 370.0 390.0 410.0 430.0 450.0 470.0 490.0 510.0 530.0 550.0 570.0 590.0 610.0 630.0 650.0 670.0 690.0 710.0 730.0 750.0 770.0 790.0 810.0 830.0 850.0 870.0 890.0 910.0 930.0 950.0 970.0 990.0 1010.0 1030.0 1050.0 1070.0 1090.0 1110.0 1130.0 1150.0 1170.0 1190.0 1210.0 1230.0 1250.0 1270.0 1290.0 1310.0 1330.0 1350.0 1370.0 1390.0 1410.0 1430.0 1450.0 1470.0 1490.0
cb_06,2.0,enc_trial,stim,response,Fine Arts students,1370.0000000059665,enc_trial,1.0,2.0,s_a_15_1,student_art,fold-d,drum kit,6.0,unique,far,paired,s_a_15_1.jpg,art,student-b1,STEM students,Fine Arts students,sub-56,1.0,1.0,1.0,1.0,0.5056818181818182 0.5081168831168831 0.5146103896103896 0.5202922077922078 0.5219155844155844 0.5194805194805194 0.5194805194805194 0.5243506493506493 0.5413961038961039 0.5673701298701299 0.6582792207792207 0.7459415584415584 0.8295454545454546 0.8969155844155844 0.9220779220779219 0.9293831168831168 0.9293831168831168 0.9293831168831168 0.9293831168831168 0.9293831168831168 0.9293831168831168 0.9293831168831168 0.9293831168831168 0.9293831168831168 0.9293831168831168 0.9237012987012988 0.9139610389610392 0.9017857142857144 0.8920454545454546 0.8847402597402597 0.8814935064935064 0.8806818181818182,0.8225108225108225 0.8073593073593074 0.7911255411255411 0.7738095238095238 0.7424242424242424 0.6428571428571428 0.5660173160173161 0.5205627705627706 0.446969696969697 0.3809523809523809 0.2727272727272727 0.1991341991341992 0.13961038961038966 0.09307359307359307 0.0757575757575758 0.06926406926406925 0.06926406926406925 0.06926406926406925 0.06926406926406925 0.06926406926406925 0.06926406926406925 0.06926406926406925 0.06926406926406925 0.06926406926406925 0.06926406926406925 0.06926406926406925 0.0757575757575758 0.08225108225108224 0.08766233766233766 0.09199134199134196 0.0941558441558441 0.0941558441558441,733.5 753.5 773.5 793.5 813.5 833.5 853.5 873.5 893.5 913.5 933.5 953.5 973.5 993.5 1013.5 1033.5 1053.5 1073.5 1093.5 1113.5 1133.5 1153.5 1173.5 1193.5 1213.5 1233.5 1253.5 1273.5 1293.5 1313.5 1333.5 1353.5
cb_06,3.0,enc_trial,stim,response,STEM students,1707.300000002986,enc_trial,1.0,3.0,s_sh_23_1,student_shared,fold-a-single,ballpoint pen,6.0,competing,,single,s_sh_23_1.jpg,,student-b1,STEM students,Fine Arts students,sub-56,1.0,,1.0,,0.4870129870129871 0.4862012987012987 0.4862012987012987 0.4983766233766234 0.5073051948051948 0.5219155844155844 0.5308441558441559 0.5373376623376623 0.5389610389610391 0.5389610389610391 0.5373376623376623 0.5357142857142857 0.5340909090909091 0.5332792207792207 0.5332792207792207 0.5146103896103896 0.5064935064935064 0.5040584415584416 0.5 0.497564935064935 0.4683441558441558 0.4439935064935065 0.4017857142857143 0.3620129870129871 0.3133116883116883 0.3092532467532468 0.3092532467532468 0.3092532467532468 0.3092532467532468 0.3092532467532468 0.3092532467532468 0.3092532467532468 0.3092532467532468 0.3092532467532468 0.3092532467532468 0.3092532467532468 0.31006493506493504 0.31087662337662336 0.3043831168831169 0.2930194805194805 0.2751623376623377 0.25892857142857145 0.2378246753246753 0.2215909090909091 0.2094155844155844 0.1972402597402597 0.18831168831168832 0.1801948051948052 0.17857142857142858 0.17857142857142858 0.19318181818181807 0.2094155844155844 0.25162337662337664 0.3344155844155844 0.44237012987012986 0.5917207792207793 0.5917207792207793 0.5892857142857143 0.5746753246753247 0.5592532467532467 0.5202922077922078 0.5186688311688312 0.5186688311688312 0.5267857142857143 0.5373376623376623 0.5381493506493507 0.5073051948051948 0.4488636363636364 0.3717532467532468 0.2426948051948052 0.12743506493506493 0.07061688311688312 0.060876623376623376 0.060876623376623376 0.060876623376623376 0.060876623376623376 0.060876623376623376 0.06168831168831169 0.06412337662337662 0.07142857142857142 0.07548701298701299 0.07711038961038963 0.08279220779220779 0.09659090909090907 0.1038961038961039,0.8235930735930737 0.7889610389610391 0.7132034632034632 0.5487012987012987 0.4632034632034632 0.3820346320346321 0.3614718614718615 0.3430735930735931 0.3354978354978355 0.33333333333333337 0.3300865800865801 0.32792207792207795 0.3246753246753247 0.32359307359307354 0.32359307359307354 0.3170995670995671 0.3160173160173161 0.3160173160173161 0.31493506493506496 0.3127705627705628 0.303030303030303 0.2954545454545454 0.2824675324675324 0.275974025974026 0.2813852813852814 0.2997835497835498 0.2997835497835498 0.2997835497835498 0.2997835497835498 0.2997835497835498 0.2997835497835498 0.2997835497835498 0.2997835497835498 0.2997835497835498 0.2997835497835498 0.2997835497835498 0.30086580086580084 0.301948051948052 0.2976190476190477 0.28354978354978355 0.2543290043290043 0.2424242424242425 0.22510822510822515 0.21212121212121213 0.2012987012987013 0.1915584415584416 0.18614718614718606 0.18073593073593075 0.1785714285714286 0.1785714285714286 0.17532467532467533 0.17316017316017318 0.1699134199134199 0.1612554112554112 0.15476190476190474 0.15476190476190474 0.15476190476190474 0.15476190476190474 0.15476190476190474 0.1515151515151515 0.1428571428571429 0.14177489177489178 0.14177489177489178 0.14177489177489178 0.14177489177489178 0.14177489177489178 0.1428571428571429 0.14610389610389607 0.15043290043290047 0.1612554112554112 0.16883116883116878 0.1742424242424242 0.17748917748917747 0.17748917748917747 0.17748917748917747 0.17748917748917747 0.17748917748917747 0.17748917748917747 0.17748917748917747 0.17640692640692646 0.17532467532467533 0.17532467532467533 0.17207792207792205 0.16450216450216448 0.15909090909090906,0.0 20.0 40.0 60.0 80.0 100.0 120.0 140.0 160.0 180.0 200.0 220.0 240.0 260.0 280.0 300.0 320.0 340.0 360.0 380.0 400.0 420.0 440.0 460.0 480.0 500.0 520.0 540.0 560.0 580.0 600.0 620.0 640.0 660.0 680.0 700.0 720.0 740.0 760.0 780.0 800.0 820.0 840.0 860.0 880.0 900.0 920.0 940.0 960.0 980.0 1000.0 1020.0 1040.0 1060.0 1080.0 1100.0 1120.0 1140.0 1160.0 1180.0 1200.0 1220.0 1240.0 1260.0 1280.0 1300.0 1320.0 1340.0 1360.0 1380.0 1400.0 1420.0 1440.0 1460.0 1480.0 1500.0 1520.0 1540.0 1560.0 1580.0 1600.0 1620.0 1640.0 1660.0 1680.0
cb_06,4.0,enc_trial,stim,response,STEM students,1419.6000000119238,enc_trial,1.0,4.0,s_s_20_1,student_stem,fold-d,dna model,6.0,unique,far,paired,s_s_20_1.jpg,stem,student-b1,STEM students,Fine Arts students,sub-56,1.0,1.0,1.0,1.0,0.5178571428571429 0.5178571428571429 0.5178571428571429 0.5178571428571429 0.5178571428571429 0.5186688311688312 0.5186688311688312 0.5186688311688312 0.5202922077922078 0.5219155844155844 0.5227272727272727 0.5284090909090909 0.5332792207792207 0.5357142857142857 0.5357142857142857 0.5308441558441559 0.5227272727272727 0.4918831168831169 0.4188311688311688 0.3262987012987013 0.17126623376623376 0.1452922077922078 0.1266233766233766 0.11931818181818182 0.11363636363636365 0.10714285714285714 0.09821428571428573 0.08685064935064933 0.07711038961038963 0.07548701298701299 0.0698051948051948 0.0689935064935065 0.0689935064935065 0.07061688311688312 0.07224025974025974 0.07467532467532467 0.08198051948051949 0.08685064935064933 0.09334415584415584 0.09577922077922076 0.10795454545454546,0.8495670995670995 0.8484848484848485 0.8463203463203464 0.841991341991342 0.8365800865800865 0.8322510822510822 0.8300865800865801 0.8268398268398268 0.8170995670995671 0.8106060606060606 0.8073593073593074 0.7792207792207793 0.7662337662337663 0.7543290043290043 0.7424242424242424 0.7067099567099567 0.685064935064935 0.6428571428571428 0.5735930735930737 0.4848484848484849 0.30952380952380953 0.28787878787878785 0.2727272727272727 0.2640692640692641 0.2586580086580087 0.24783549783549785 0.2391774891774892 0.2305194805194805 0.22186147186147187 0.22186147186147187 0.20887445887445888 0.1958874458874459 0.18939393939393945 0.1829004329004329 0.17640692640692646 0.16666666666666666 0.15043290043290047 0.1471861471861472 0.14393939393939392 0.14393939393939392 0.14177489177489178,566.6000000000057 586.6000000000057 606.6000000000057 626.6000000000057 646.6000000000057 666.6000000000057 686.6000000000057 706.6000000000058 726.6000000000058 746.6000000000058 766.6000000000058 786.6000000000058 806.6000000000058 826.6000000000058 846.6000000000058 866.6000000000058 886.6000000000058 906.6000000000056 926.6000000000056 946.6000000000056 966.6000000000056 986.6000000000056 1006.6000000000056 1026.6000000000058 1046.6000000000058 1066.6000000000058 1086.6000000000058 1106.6000000000058 1126.6000000000058 1146.6000000000058 1166.6000000000058 1186.6000000000058 1206.6000000000058 1226.6000000000058 1246.6000000000058 1266.6000000000058 1286.6000000000058 1306.6000000000058 1326.6000000000058 1346.6000000000058 1366.6000000000058
cb_06,5.0,enc_trial,stim,response,Fine Arts students,1575.400000011927,enc_trial,1.0,5.0,s_sh_24_1,student_shared,fold-b,desk organizer,6.0,competing,far,paired,s_sh_24_1.jpg,,student-b1,STEM students,Fine Arts students,sub-56,1.0,1.0,0.0,0.0,0.4983766233766234 0.4983766233766234 0.4983766233766234 0.497564935064935 0.497564935064935 0.497564935064935 0.497564935064935 0.5016233766233766 0.502435064935065 0.5056818181818182 0.5162337662337663 0.5373376623376623 0.5827922077922078 0.6623376623376623 0.7483766233766234 0.8709415584415584 0.8871753246753247 0.8920454545454546 0.8944805194805194 0.8961038961038961 0.8961038961038961 0.8961038961038961 0.8961038961038961 0.8952922077922078 0.8952922077922078 0.8952922077922078 0.8952922077922078 0.8936688311688312 0.8912337662337663 0.8896103896103896 0.887987012987013 0.8863636363636364 0.8782467532467533 0.8668831168831169 0.8490259740259741 0.7678571428571429 0.7556818181818182 0.7548701298701299 0.7548701298701299 0.7548701298701299 0.7670454545454546 0.7881493506493507 0.810064935064935 0.8409090909090909 0.8961038961038961 0.9107142857142856 0.9115259740259741 0.9115259740259741 0.9099025974025974 0.9082792207792209 0.905844155844156,0.814935064935065 0.8138528138528138 0.8106060606060606 0.8051948051948052 0.7997835497835498 0.7976190476190477 0.7922077922077921 0.7803030303030303 0.7738095238095238 0.7651515151515151 0.7326839826839826 0.6774891774891775 0.5898268398268398 0.4653679653679653 0.3344155844155844 0.18614718614718606 0.1699134199134199 0.16233766233766234 0.1558441558441559 0.15367965367965364 0.15259740259740262 0.1515151515151515 0.15043290043290047 0.15043290043290047 0.15043290043290047 0.15043290043290047 0.15043290043290047 0.15043290043290047 0.15043290043290047 0.14935064935064934 0.14935064935064934 0.14935064935064934 0.14935064935064934 0.14935064935064934 0.14935064935064934 0.14610389610389607 0.1428571428571429 0.14177489177489178 0.14177489177489178 0.14177489177489178 0.14502164502164505 0.15043290043290047 0.15043290043290047 0.15043290043290047 0.15043290043290047 0.15043290043290047 0.15043290043290047 0.15043290043290047 0.15043290043290047 0.14935064935064934 0.14935064935064934,516.7000000000116 536.7000000000116 556.7000000000116 576.7000000000116 596.7000000000116 616.7000000000116 636.7000000000116 656.7000000000116 676.7000000000116 696.7000000000116 716.7000000000116 736.7000000000116 756.7000000000116 776.7000000000116 796.7000000000116 816.7000000000116 836.7000000000116 856.7000000000116 876.7000000000116 896.7000000000116 916.7000000000116 936.7000000000116 956.7000000000116 976.7000000000116 996.7000000000116 1016.7000000000116 1036.7000000000116 1056.7000000000116 1076.7000000000116 1096.7000000000116 1116.7000000000116 1136.7000000000114 1156.7000000000114 1176.7000000000114 1196.7000000000114 1216.7000000000114 1236.7000000000114 1256.7000000000114 1276.7000000000114 1296.7000000000114 1316.7000000000114 1336.7000000000114 1356.7000000000114 1376.7000000000116 1396.7000000000116 1416.7000000000116 1436.7000000000116 1456.7000000000116 1476.7000000000116 1496.7000000000116 1516.7000000000116
cb_06,6.0,enc_trial,stim,response,STEM students,1252.5000000029831,enc_trial,1.0,6.0,s_s_14_2,student_stem,fold-e,funnel,6.0,unique,close,paired,s_s_14_2.jpg,stem,student-b1,STEM students,Fine Arts students,sub-56,1.0,1.0,1.0,1.0,0.4683441558441558 0.4642857142857143 0.4561688311688312 0.43506493506493504 0.3928571428571429 0.2573051948051948 0.2150974025974026 0.1915584415584416 0.1534090909090909 0.10714285714285714 0.09090909090909093 0.08847402597402597 0.08522727272727272 0.07873376623376624 0.07467532467532467 0.0633116883116883 0.0633116883116883 0.0633116883116883 0.06655844155844155 0.07467532467532467 0.09902597402597403 0.10795454545454546 0.11038961038961036 0.112012987012987 0.11282467532467533 0.11444805194805195 0.11525974025974026,0.8495670995670995 0.8160173160173161 0.7543290043290043 0.6818181818181819 0.5811688311688312 0.35064935064935066 0.30086580086580084 0.2803030303030303 0.25649350649350644 0.2402597402597403 0.2316017316017316 0.22510822510822515 0.20779220779220767 0.19805194805194806 0.1948051948051948 0.18939393939393945 0.18939393939393945 0.18831168831168832 0.18398268398268405 0.17640692640692646 0.15909090909090906 0.15259740259740262 0.1515151515151515 0.15043290043290047 0.15043290043290047 0.15043290043290047 0.15043290043290047,616.3000000000029 636.3000000000029 656.3000000000029 676.3000000000029 696.3000000000029 716.3000000000029 736.3000000000029 756.3000000000029 776.3000000000029 796.3000000000029 816.3000000000029 836.3000000000029 856.3000000000029 876.3000000000029 896.3000000000029 916.3000000000028 936.3000000000028 956.3000000000028 976.3000000000028 996.3000000000028 1016.3000000000028 1036.3000000000031 1056.3000000000031 1076.3000000000031 1096.3000000000031 1116.3000000000031 1136.3000000000031
cb_06,7.0,enc_trial,stim,response,STEM students,1102.8000000059546,enc_trial,1.0,7.0,s_sh_09_1,student_shared,fold-c,paper clips,6.0,competing,close,paired,s_sh_09_1.jpg,,student-b1,STEM students,Fine Arts students,sub-56,1.0,1.0,1.0,1.0,0.4951298701298701 0.4853896103896104 0.4772727272727273 0.4650974025974026 0.452922077922078 0.426948051948052 0.4147727272727273 0.4042207792207792 0.3912337662337662 0.35633116883116883 0.299512987012987 0.262987012987013 0.23295454545454544 0.1915584415584416 0.15746753246753248 0.13474025974025974 0.12987012987012986 0.12581168831168832 0.125,0.8062770562770563 0.7597402597402597 0.7164502164502164 0.6753246753246753 0.6277056277056277 0.4902597402597403 0.3928571428571429 0.3160173160173161 0.27489177489177485 0.2348484848484849 0.19805194805194806 0.17640692640692646 0.1612554112554112 0.14826839826839822 0.13744588744588748 0.12878787878787878 0.12337662337662335 0.11796536796536795 0.11471861471861465,616.7999999999884 636.7999999999884 656.7999999999884 676.7999999999884 696.7999999999884 716.7999999999884 736.7999999999884 756.7999999999884 776.7999999999884 796.7999999999884 816.7999999999884 836.7999999999884 856.7999999999884 876.7999999999884 896.7999999999884 916.7999999999884 936.7999999999884 956.7999999999884 976.7999999999884
cb_06,8.0,enc_trial,stim,response,Fine Arts students,1252.6000000059576,enc_trial,1.0,8.0,s_a_09_2,student_art,fold-e,picture frame,6.0,unique,close,paired,s_a_09_2.jpg,art,student-b1,STEM students,Fine Arts students,sub-56,1.0,1.0,1.0,1.0,0.5211038961038961 0.5211038961038961 0.5202922077922078 0.515422077922078 0.4983766233766234 0.4780844155844156 0.4261363636363637 0.38392857142857145 0.3603896103896104 0.35146103896103903 0.3522727272727273 0.3522727272727273 0.3522727272727273 0.34902597402597396 0.3392857142857143 0.3327922077922078 0.35633116883116883 0.5186688311688312 0.6785714285714286 0.7564935064935064 0.887987012987013 0.9042207792207791 0.9042207792207791 0.9042207792207791 0.8985389610389609 0.8855519480519479 0.8790584415584416 0.8790584415584416 0.8814935064935064 0.8814935064935064 0.8806818181818182 0.877435064935065 0.8766233766233766,0.7987012987012987 0.7803030303030303 0.7489177489177491 0.7207792207792207 0.6244588744588744 0.5303030303030303 0.4307359307359308 0.3614718614718615 0.3170995670995671 0.2846320346320347 0.2586580086580087 0.2543290043290043 0.25108225108225113 0.2413419913419913 0.22510822510822515 0.20779220779220767 0.2012987012987013 0.18073593073593075 0.14393939393939392 0.1298701298701299 0.09956709956709953 0.09956709956709953 0.09956709956709953 0.09956709956709953 0.10389610389610393 0.11363636363636365 0.12012987012987007 0.12662337662337664 0.13203463203463206 0.13528138528138536 0.13636363636363635 0.13744588744588748 0.13744588744588748,566.3999999999943 586.3999999999943 606.3999999999943 626.3999999999943 646.3999999999943 666.3999999999943 686.3999999999943 706.3999999999942 726.3999999999942 746.3999999999942 766.3999999999942 786.3999999999942 806.3999999999942 826.3999999999942 846.3999999999942 866.3999999999942 886.3999999999942 906.3999999999944 926.3999999999944 946.3999999999944 966.3999999999944 986.3999999999944 1006.3999999999944 1026.3999999999942 1046.3999999999942 1066.3999999999942 1086.3999999999942 1106.3999999999942 1126.3999999999942 1146.3999999999942 1166.3999999999942 1186.3999999999942 1206.3999999999942
cb_06,9.0,enc_trial,stim,response,STEM students,1282.9000000000087,enc_trial,1.0,9.0,s_s_11_1,student_stem,fold-d,scientific scale,6.0,unique,far,paired,s_s_11_1.jpg,stem,student-b1,STEM students,Fine Arts students,sub-56,1.0,1.0,1.0,1.0,0.4902597402597403 0.489448051948052 0.4853896103896104 0.47646103896103903 0.4683441558441558 0.4586038961038961 0.4561688311688312 0.4521103896103896 0.4448051948051948 0.4326298701298701 0.4082792207792208 0.3928571428571429 0.3717532467532468 0.34334415584415584 0.3222402597402597 0.28733766233766234 0.2727272727272727 0.26461038961038963 0.25892857142857145 0.2475649350649351 0.21185064935064926 0.20535714285714285 0.20454545454545456 0.20454545454545456 0.20454545454545456 0.20048701298701305 0.19074675324675325 0.1834415584415585 0.17857142857142858 0.17694805194805194 0.17694805194805194 0.17207792207792208 0.1680194805194805 0.16477272727272727,0.8192640692640693 0.8019480519480521 0.7857142857142857 0.7532467532467533 0.725108225108225 0.6277056277056277 0.5670995670995671 0.5064935064935066 0.4653679653679653 0.43939393939393945 0.3820346320346321 0.3268398268398268 0.2683982683982684 0.2272727272727273 0.2142857142857143 0.1991341991341992 0.18831168831168832 0.18073593073593075 0.17748917748917747 0.17532467532467533 0.17207792207792205 0.17099567099567106 0.17099567099567106 0.17099567099567106 0.17099567099567106 0.16883116883116878 0.16883116883116878 0.16883116883116878 0.1699134199134199 0.17099567099567106 0.17099567099567106 0.17099567099567106 0.17099567099567106 0.17099567099567106,616.3999999999943 636.3999999999943 656.3999999999943 676.3999999999943 696.3999999999942 716.3999999999942 736.3999999999942 756.3999999999942 776.3999999999942 796.3999999999942 816.3999999999942 836.3999999999942 856.3999999999942 876.3999999999942 896.3999999999942 916.3999999999944 936.3999999999944 956.3999999999944 976.3999999999944 996.3999999999944 1016.3999999999944 1036.3999999999942 1056.3999999999942 1076.3999999999942 1096.3999999999942 1116.3999999999942 1136.3999999999942 1156.3999999999942 1176.3999999999942 1196.3999999999942 1216.3999999999942 1236.3999999999942 1256.3999999999942 1276.3999999999942
cb_06,10.0,enc_trial,stim,response,STEM students,1528.0,enc_trial,1.0,10.0,s_sh_04_1,student_shared,fold-c,laptop stand,6.0,competing,close,paired,s_sh_04_1.jpg,,student-b1,STEM students,Fine Arts students,sub-56,0.0,0.0,1.0,1.0,0.5081168831168831 0.5048701298701299 0.5 0.4918831168831169 0.4748376623376624 0.43912337662337664 0.4277597402597403 0.4212662337662338 0.4147727272727273 0.4123376623376624 0.3928571428571429 0.3831168831168831 0.3741883116883117 0.3628246753246753 0.34415584415584416 0.3295454545454545 0.3189935064935065 0.3076298701298701 0.2784090909090909 0.26136363636363635 0.23944805194805194 0.2353896103896104 0.2288961038961039 0.22564935064935066 0.22564935064935066 0.22564935064935066 0.22564935064935066 0.2215909090909091 0.21915584415584416 0.21753246753246752 0.1915584415584416 0.17532467532467533 0.15503246753246752 0.13392857142857142 0.11525974025974026 0.10876623376623376 0.10876623376623376 0.10876623376623376 0.10876623376623376 0.10876623376623376 0.10876623376623376 0.11038961038961036 0.112012987012987,0.814935064935065 0.8127705627705628 0.8073593073593074 0.7965367965367965 0.7694805194805194 0.7034632034632035 0.670995670995671 0.6439393939393939 0.6233766233766234 0.6136363636363636 0.564935064935065 0.5400432900432901 0.5140692640692641 0.4859307359307359 0.448051948051948 0.4101731601731602 0.3798701298701299 0.3625541125541125 0.3365800865800865 0.32359307359307354 0.3041125541125541 0.2943722943722944 0.2824675324675324 0.2716450216450217 0.26190476190476186 0.2532467532467533 0.2456709956709957 0.2337662337662337 0.2283549783549783 0.2261904761904761 0.1958874458874459 0.18831168831168832 0.18398268398268405 0.1829004329004329 0.1829004329004329 0.1829004329004329 0.1829004329004329 0.1829004329004329 0.1829004329004329 0.1829004329004329 0.1829004329004329 0.1872294372294372 0.18831168831168832,616.6999999999971 636.6999999999971 656.6999999999971 676.6999999999971 696.6999999999971 716.6999999999971 736.6999999999971 756.6999999999971 776.6999999999971 796.6999999999971 816.6999999999971 836.6999999999971 856.6999999999971 876.6999999999971 896.6999999999971 916.6999999999972 936.6999999999972 956.6999999999972 976.6999999999972 996.6999999999972 1016.6999999999972 1036.6999999999969 1056.6999999999969 1076.6999999999969 1096.6999999999969 1116.6999999999969 1136.6999999999969 1156.6999999999969 1176.6999999999969 1196.6999999999969 1216.6999999999969 1236.6999999999969 1256.6999999999969 1276.6999999999969 1296.6999999999969 1316.6999999999969 1336.6999999999969 1356.6999999999969 1376.6999999999969 1396.6999999999969 1416.6999999999969 1436.6999999999969 1456.6999999999969
cb_06,11.0,enc_trial,stim,response,Fine Arts students,1383.5,enc_trial,1.0,11.0,s_sh_09_2,student_shared,fold-c,paper clips,6.0,competing,close,paired,s_sh_09_2.jpg,,student-b1,STEM students,Fine Arts students,sub-56,1.0,1.0,1.0,1.0,0.4959415584415585 0.4959415584415585 0.4959415584415585 0.4959415584415585 0.4959415584415585 0.497564935064935 0.5032467532467533 0.512987012987013 0.5211038961038961 0.5227272727272727 0.5332792207792207 0.5357142857142857 0.536525974025974 0.536525974025974 0.5340909090909091 0.5340909090909091 0.5340909090909091 0.5340909090909091 0.5340909090909091 0.5340909090909091 0.5340909090909091 0.5340909090909091 0.5340909090909091 0.5340909090909091 0.5340909090909091 0.5535714285714286 0.5689935064935064 0.6047077922077922 0.6282467532467533 0.7142857142857143 0.8084415584415584 0.8506493506493507 0.872564935064935 0.872564935064935 0.872564935064935 0.872564935064935 0.872564935064935 0.872564935064935 0.872564935064935 0.872564935064935 0.9107142857142856 0.9025974025974026 0.8985389610389609 0.8985389610389609 0.8985389610389609 0.8993506493506493 0.9009740259740259 0.9025974025974026 0.9025974025974026 0.9025974025974026 0.9025974025974026 0.9025974025974026 0.9025974025974026 0.9025974025974026 0.9025974025974026 0.9025974025974026 0.9025974025974026 0.9025974025974026 0.9025974025974026 0.9025974025974026 0.9009740259740259 0.8961038961038961 0.8896103896103896 0.8863636363636364 0.8823051948051948 0.8660714285714286 0.8660714285714286 0.8652597402597403,0.8225108225108225 0.8203463203463204 0.8192640692640693 0.8181818181818181 0.8170995670995671 0.8019480519480521 0.7922077922077921 0.7759740259740259 0.7510822510822509 0.7424242424242424 0.7077922077922079 0.699134199134199 0.6958874458874459 0.6699134199134199 0.6634199134199135 0.6634199134199135 0.6634199134199135 0.6634199134199135 0.6634199134199135 0.6634199134199135 0.6634199134199135 0.6634199134199135 0.6634199134199135 0.6634199134199135 0.6634199134199135 0.6590909090909092 0.645021645021645 0.5952380952380952 0.553030303030303 0.3917748917748918 0.1742424242424242 0.07359307359307354 0.03030303030303028 0.03030303030303028 0.03030303030303028 0.03030303030303028 0.03030303030303028 0.03030303030303028 0.03030303030303028 0.03030303030303028 0.009740259740259716 0.03030303030303028 0.036796536796536834 0.03787878787878785 0.038961038961038974 0.0443722943722944 0.04978354978354982 0.051948051948051965 0.051948051948051965 0.051948051948051965 0.051948051948051965 0.051948051948051965 0.051948051948051965 0.051948051948051965 0.051948051948051965 0.051948051948051965 0.051948051948051965 0.056277056277056266 0.056277056277056266 0.05735930735930739 0.06277056277056281 0.07467532467532467 0.08658008658008652 0.10064935064935067 0.1114718614718615 0.15259740259740262 0.15800865800865804 0.15800865800865804,33.69999999999709 53.69999999999709 73.69999999999709 93.69999999999708 113.69999999999708 133.6999999999971 153.6999999999971 173.6999999999971 193.6999999999971 213.6999999999971 233.6999999999971 253.6999999999971 273.6999999999971 293.69999999999715 313.69999999999715 333.69999999999715 353.6999999999971 373.6999999999971 393.6999999999971 413.6999999999971 433.6999999999971 453.6999999999971 473.6999999999971 493.6999999999971 513.6999999999971 533.6999999999971 553.6999999999971 573.6999999999971 593.6999999999971 613.6999999999971 633.6999999999971 653.6999999999971 673.6999999999971 693.6999999999971 713.6999999999971 733.6999999999971 753.6999999999971 773.6999999999971 793.6999999999971 813.6999999999971 833.6999999999971 853.6999999999971 873.6999999999971 893.6999999999971 913.6999999999972 933.6999999999972 953.6999999999972 973.6999999999972 993.6999999999972 1013.6999999999972 1033.6999999999969 1053.6999999999969 1073.6999999999969 1093.6999999999969 1113.6999999999969 1133.6999999999969 1153.6999999999969 1173.6999999999969 1193.6999999999969 1213.6999999999969 1233.6999999999969 1253.6999999999969 1273.6999999999969 1293.6999999999969 1313.6999999999969 1333.6999999999969 1353.6999999999969 1373.6999999999969
cb_06,12.0,enc_trial,stim,response,Fine Arts students,1865.8999999999799,enc_trial,1.0,12.0,s_a_09_1,student_art,fold-e,picture frame,6.0,unique,close,paired,s_a_09_1.jpg,art,student-b1,STEM students,Fine Arts students,sub-56,1.0,1.0,1.0,1.0,0.5073051948051948 0.5121753246753247 0.5170454545454546 0.5178571428571429 0.5178571428571429 0.5178571428571429 0.5178571428571429 0.5178571428571429 0.5178571428571429 0.5178571428571429 0.5178571428571429 0.5178571428571429 0.5178571428571429 0.5178571428571429 0.5178571428571429 0.5178571428571429 0.5121753246753247 0.5113636363636364 0.512987012987013 0.5284090909090909 0.5527597402597403 0.5633116883116883 0.5803571428571429 0.5941558441558441 0.5974025974025974 0.5892857142857143 0.5064935064935064 0.4724025974025974 0.4586038961038961 0.4172077922077922 0.31006493506493504 0.3084415584415585 0.31737012987012986 0.3392857142857143 0.35146103896103903 0.5397727272727273 0.6785714285714286 0.8230519480519479 0.9074675324675324 0.9285714285714286 0.9293831168831168 0.9285714285714286 0.9253246753246752 0.9188311688311688 0.8936688311688312 0.8766233766233766 0.8766233766233766 0.8766233766233766 0.8766233766233766 0.8766233766233766 0.8758116883116883 0.8758116883116883 0.8758116883116883 0.8758116883116883 0.8758116883116883 0.8758116883116883 0.8741883116883117 0.8652597402597403 0.8490259740259741 0.8222402597402597 0.612012987012987 0.5275974025974026 0.3555194805194805 0.2370129870129869 0.19642857142857145 0.19642857142857145 0.19642857142857145 0.19805194805194806 0.20292207792207792 0.2086038961038961 0.2962662337662338 0.3295454545454545 0.4732142857142857 0.6607142857142857 0.8441558441558441 0.9764610389610392 0.9764610389610392 0.9715909090909092 0.9521103896103896 0.9342532467532468 0.9017857142857144 0.8944805194805194 0.8912337662337663 0.8896103896103896 0.887987012987013 0.8668831168831169 0.8530844155844156 0.8433441558441559 0.8417207792207793,0.841991341991342 0.8441558441558441 0.8452380952380952 0.8463203463203464 0.8463203463203464 0.8463203463203464 0.8463203463203464 0.8463203463203464 0.8463203463203464 0.8463203463203464 0.8463203463203464 0.8463203463203464 0.8463203463203464 0.8463203463203464 0.8463203463203464 0.8463203463203464 0.8257575757575757 0.7824675324675325 0.7651515151515151 0.6980519480519479 0.5551948051948052 0.3701298701298701 0.2932900432900433 0.2575757575757576 0.2435064935064936 0.2348484848484849 0.20454545454545456 0.18939393939393945 0.1829004329004329 0.16883116883116878 0.13636363636363635 0.13528138528138536 0.13528138528138536 0.13528138528138536 0.13528138528138536 0.12445887445887448 0.12012987012987007 0.11363636363636365 0.10606060606060608 0.10606060606060608 0.10606060606060608 0.10606060606060608 0.10606060606060608 0.10606060606060608 0.10606060606060608 0.10606060606060608 0.1071428571428571 0.10822510822510822 0.10822510822510822 0.10822510822510822 0.10822510822510822 0.10822510822510822 0.10822510822510822 0.10822510822510822 0.10822510822510822 0.10822510822510822 0.10822510822510822 0.10822510822510822 0.10822510822510822 0.10930735930735937 0.12121212121212124 0.13311688311688308 0.1558441558441559 0.1785714285714286 0.18506493506493504 0.18398268398268405 0.1655844155844156 0.1601731601731602 0.15367965367965364 0.14935064935064934 0.14177489177489178 0.14069264069264065 0.12662337662337664 0.10173160173160176 0.07683982683982682 0.0757575757575758 0.07792207792207795 0.08116883116883122 0.08766233766233766 0.09307359307359307 0.09632034632034636 0.09848484848484852 0.09848484848484852 0.09956709956709953 0.10064935064935067 0.1028138528138528 0.1071428571428571 0.11255411255411253 0.11363636363636365,49.69999999999709 69.69999999999709 89.6999999999971 109.69999999999708 129.6999999999971 149.6999999999971 169.6999999999971 189.6999999999971 209.6999999999971 229.6999999999971 249.6999999999971 269.6999999999971 289.69999999999715 309.69999999999715 329.69999999999715 349.6999999999971 369.6999999999971 389.6999999999971 409.6999999999971 429.6999999999971 449.6999999999971 469.6999999999971 489.6999999999971 509.6999999999971 529.6999999999971 549.6999999999971 569.6999999999971 589.6999999999971 609.6999999999971 629.6999999999971 649.6999999999971 669.6999999999971 689.6999999999971 709.6999999999971 729.6999999999971 749.6999999999971 769.6999999999971 789.6999999999971 809.6999999999971 829.6999999999971 849.6999999999971 869.6999999999971 889.6999999999971 909.6999999999972 929.6999999999972 949.6999999999972 969.6999999999972 989.6999999999972 1009.6999999999972 1029.6999999999969 1049.6999999999969 1069.6999999999969 1089.6999999999969 1109.6999999999969 1129.6999999999969 1149.6999999999969 1169.6999999999969 1189.6999999999969 1209.6999999999969 1229.6999999999969 1249.6999999999969 1269.6999999999969 1289.6999999999969 1309.6999999999969 1329.6999999999969 1349.6999999999969 1369.6999999999969 1389.6999999999969 1409.6999999999969 1429.6999999999969 1449.6999999999969 1469.6999999999969 1489.6999999999969 1509.6999999999969 1529.6999999999969 1549.6999999999969 1569.6999999999969 1589.6999999999969 1609.6999999999969 1629.6999999999969 1649.6999999999969 1669.6999999999969 1689.6999999999969 1709.6999999999969 1729.6999999999969 1749.6999999999969 1769.6999999999969 1789.6999999999969 1809.6999999999969
cb_06,13.0,enc_trial,stim,response,STEM students,1157.0000000119326,enc_trial,1.0,13.0,s_s_04_1,student_stem,fold-a-single,bunsen burner,6.0,unique,,single,s_s_04_1.jpg,stem,student-b1,STEM students,Fine Arts students,sub-56,1.0,,1.0,,0.5040584415584416 0.5008116883116883 0.4959415584415585 0.4878246753246753 0.4675324675324675 0.4261363636363637 0.3157467532467532 0.288961038961039 0.28733766233766234 0.28733766233766234 0.2832792207792208 0.26542207792207795 0.26542207792207795 0.26542207792207795 0.26542207792207795 0.26542207792207795 0.26542207792207795 0.26542207792207795 0.26542207792207795 0.26461038961038963 0.2637987012987013 0.2459415584415585 0.2207792207792208 0.20292207792207792 0.19318181818181807 0.16233766233766234 0.1444805194805195 0.1387987012987013 0.13717532467532467,0.7813852813852814 0.7619047619047619 0.7294372294372294 0.6883116883116883 0.6114718614718615 0.4945887445887446 0.2445887445887445 0.1818181818181817 0.1655844155844156 0.16233766233766234 0.1612554112554112 0.17640692640692646 0.17640692640692646 0.17640692640692646 0.17640692640692646 0.17640692640692646 0.17640692640692646 0.17640692640692646 0.17640692640692646 0.17965367965367962 0.1872294372294372 0.1872294372294372 0.18506493506493504 0.1818181818181817 0.17965367965367962 0.1785714285714286 0.17748917748917747 0.1742424242424242 0.17316017316017318,499.90000000002334 519.9000000000234 539.9000000000234 559.9000000000232 579.9000000000229 599.9000000000229 619.9000000000229 639.9000000000229 659.9000000000227 679.9000000000227 699.9000000000227 719.9000000000227 739.9000000000226 759.9000000000226 779.9000000000226 799.9000000000225 819.9000000000225 839.9000000000225 859.9000000000225 879.9000000000223 899.9000000000221 919.9000000000219 939.9000000000219 959.9000000000219 979.9000000000219 999.9000000000219 1019.9000000000219 1039.9000000000217 1059.9000000000217
cb_06,14.0,enc_trial,stim,response,Fine Arts students,1066.7000000089463,enc_trial,1.0,14.0,s_a_03_1,student_art,fold-e,palette,6.0,unique,close,paired,s_a_03_1.jpg,art,student-b1,STEM students,Fine Arts students,sub-56,1.0,1.0,1.0,1.0,0.5008116883116883 0.5064935064935064 0.5560064935064936 0.6022727272727273 0.6331168831168831 0.8311688311688312 0.862012987012987 0.9115259740259741 0.9228896103896104 0.9261363636363636 0.9261363636363636 0.9261363636363636 0.9261363636363636 0.9253246753246752 0.9253246753246752 0.9253246753246752 0.9253246753246752 0.9253246753246752 0.9131493506493508 0.9017857142857144 0.8928571428571429 0.8904220779220781 0.8887987012987013,0.8441558441558441 0.803030303030303 0.6937229437229437 0.5974025974025974 0.5497835497835497 0.2532467532467533 0.2056277056277056 0.12337662337662335 0.10497835497835496 0.09848484848484852 0.09632034632034636 0.09632034632034636 0.09632034632034636 0.09740259740259738 0.09740259740259738 0.09740259740259738 0.09740259740259738 0.09740259740259738 0.1071428571428571 0.1158008658008658 0.1255411255411255 0.12878787878787878 0.13095238095238093,533.3000000000175 553.3000000000175 573.3000000000175 593.3000000000175 613.3000000000175 633.3000000000175 653.3000000000175 673.3000000000175 693.3000000000176 713.3000000000176 733.3000000000176 753.3000000000176 773.3000000000176 793.3000000000176 813.3000000000176 833.3000000000176 853.3000000000176 873.3000000000176 893.3000000000176 913.3000000000177 933.3000000000177 953.3000000000177 973.3000000000177
cb_06,15.0,enc_trial,stim,response,STEM students,1462.0,enc_trial,1.0,15.0,s_sh_14_1,student_shared,fold-b,printer,6.0,competing,far,paired,s_sh_14_1.jpg,,student-b1,STEM students,Fine Arts students,sub-56,1.0,1.0,0.0,1.0,0.512987012987013 0.5194805194805194 0.5219155844155844 0.5235389610389609 0.5235389610389609 0.5194805194805194 0.4845779220779221 0.4561688311688312 0.4188311688311688 0.38798701298701294 0.3465909090909091 0.3474025974025974 0.34983766233766234 0.34983766233766234 0.3449675324675325 0.3368506493506493 0.32386363636363635 0.32142857142857145 0.3198051948051948 0.31737012987012986 0.3092532467532468 0.2824675324675325 0.2743506493506493 0.2621753246753247 0.2435064935064935 0.23944805194805194 0.23295454545454544 0.2313311688311689 0.2288961038961039 0.2264610389610389 0.21996753246753248 0.19805194805194806 0.17694805194805194 0.1680194805194805 0.1663961038961039 0.1534090909090909 0.14935064935064934 0.1452922077922078 0.14285714285714285 0.14042207792207792 0.14042207792207792,0.8041125541125541 0.7889610389610391 0.7835497835497836 0.7738095238095238 0.7694805194805194 0.7586580086580087 0.6980519480519479 0.6439393939393939 0.577922077922078 0.5194805194805194 0.4058441558441559 0.3874458874458875 0.3787878787878788 0.36471861471861466 0.3560606060606061 0.35064935064935066 0.3387445887445888 0.3376623376623377 0.3354978354978355 0.33333333333333337 0.32792207792207795 0.3160173160173161 0.3116883116883117 0.30627705627705626 0.2943722943722944 0.29004329004328994 0.2781385281385281 0.2716450216450217 0.26515151515151514 0.2597402597402597 0.24783549783549785 0.21536796536796526 0.2023809523809524 0.1991341991341992 0.19805194805194806 0.18831168831168832 0.18398268398268405 0.1818181818181817 0.18073593073593075 0.17965367965367962 0.1785714285714286,616.5 636.5 656.5 676.5 696.5 716.5 736.5 756.5 776.5 796.5 816.5 836.5 856.5 876.5 896.5 916.5 936.5 956.5 976.5 996.5 1016.5 1036.5 1056.5 1076.5 1096.5 1116.5 1136.5 1156.5 1176.5 1196.5 1216.5 1236.5 1256.5 1276.5 1296.5 1316.5 1336.5 1356.5 1376.5 1396.5 1416.5
cb_06,16.0,enc_trial,stim,response,STEM students,2056.200000000012,enc_trial,1.0,16.0,s_sh_04_2,student_shared,fold-c,laptop stand,6.0,competing,close,paired,s_sh_04_2.jpg,,student-b1,STEM students,Fine Arts students,sub-56,0.0,0.0,1.0,1.0,0.5040584415584416 0.5040584415584416 0.5032467532467533 0.4967532467532468 0.4878246753246753 0.4691558441558442 0.4569805194805195 0.4456168831168831 0.43993506493506496 0.4366883116883117 0.4366883116883117 0.4326298701298701 0.4326298701298701 0.4326298701298701 0.4326298701298701 0.4326298701298701 0.4326298701298701 0.4326298701298701 0.4326298701298701 0.4326298701298701 0.4326298701298701 0.4326298701298701 0.4326298701298701 0.4326298701298701 0.45048701298701294 0.4577922077922078 0.4569805194805195 0.452922077922078 0.45048701298701294 0.448051948051948 0.4545454545454545 0.4650974025974026 0.4724025974025974 0.4732142857142857 0.4724025974025974 0.4577922077922078 0.4082792207792208 0.34334415584415584 0.25243506493506496 0.18181818181818185 0.09253246753246754 0.07792207792207792 0.07142857142857142 0.0689935064935065 0.0689935064935065 0.0689935064935065 0.0689935064935065 0.0698051948051948 0.07224025974025974 0.07711038961038963 0.09253246753246754 0.10064935064935067 0.10551948051948053 0.10795454545454546 0.10957792207792208 0.11038961038961036 0.11038961038961036 0.11282467532467533 0.11607142857142858 0.11688311688311688,0.8300865800865801 0.814935064935065 0.7987012987012987 0.7716450216450217 0.7402597402597403 0.6699134199134199 0.6266233766233766 0.5768398268398268 0.5432900432900433 0.5140692640692641 0.4945887445887446 0.4870129870129871 0.4870129870129871 0.4870129870129871 0.4870129870129871 0.4870129870129871 0.4870129870129871 0.4870129870129871 0.4870129870129871 0.4870129870129871 0.4870129870129871 0.4870129870129871 0.4870129870129871 0.4870129870129871 0.4989177489177489 0.5032467532467533 0.5032467532467533 0.5032467532467533 0.5021645021645021 0.501082251082251 0.4924242424242424 0.4880952380952381 0.4826839826839827 0.4794372294372294 0.4761904761904762 0.4415584415584416 0.3744588744588745 0.3246753246753247 0.275974025974026 0.25108225108225113 0.2142857142857143 0.2023809523809524 0.1915584415584416 0.1818181818181817 0.17748917748917747 0.17207792207792205 0.16774891774891776 0.16233766233766234 0.15692640692640691 0.1515151515151515 0.14177489177489178 0.13744588744588748 0.13636363636363635 0.13528138528138536 0.13528138528138536 0.13528138528138536 0.13528138528138536 0.13528138528138536 0.13636363636363635 0.13744588744588748,816.5 836.5 856.5 876.5 896.5 916.5 936.5 956.5 976.5 996.5 1016.5 1036.5 1056.5 1076.5 1096.5 1116.5 1136.5 1156.5 1176.5 1196.5 1216.5 1236.5 1256.5 1276.5 1296.5 1316.5 1336.5 1356.5 1376.5 1396.5 1416.5 1436.5 1456.5 1476.5 1496.5 1516.5 1536.5 1556.5 1576.5 1596.5 1616.5 1636.5 1656.5 1676.5 1696.5 1716.5 1736.5 1756.5 1776.5 1796.5 1816.5 1836.5 1856.5 1876.5 1896.5 1916.5 1936.5 1956.5 1976.5 1996.5
cb_06,17.0,enc_trial,stim,response,Fine Arts students,1494.9000000059605,enc_trial,1.0,17.0,s_a_15_2,student_art,fold-d,drum kit,6.0,unique,far,paired,s_a_15_2.jpg,art,student-b1,STEM students,Fine Arts students,sub-56,1.0,1.0,1.0,1.0,0.4983766233766234 0.4983766233766234 0.4983766233766234 0.4983766233766234 0.4983766233766234 0.4983766233766234 0.4983766233766234 0.4983766233766234 0.4983766233766234 0.4983766233766234 0.4983766233766234 0.4983766233766234 0.4983766233766234 0.4983766233766234 0.4983766233766234 0.4983766233766234 0.4983766233766234 0.4983766233766234 0.4983766233766234 0.4983766233766234 0.4983766233766234 0.4983766233766234 0.4983766233766234 0.4983766233766234 0.4983766233766234 0.4983766233766234 0.4983766233766234 0.4983766233766234 0.4983766233766234 0.4983766233766234 0.4983766233766234 0.4983766233766234 0.4983766233766234 0.4983766233766234 0.4983766233766234 0.4983766233766234 0.497564935064935 0.4935064935064935 0.4813311688311688 0.4618506493506493 0.44237012987012986 0.3936688311688312 0.3741883116883117 0.3222402597402597 0.25405844155844154 0.15584415584415584 0.1461038961038961 0.1461038961038961 0.1461038961038961 0.1461038961038961 0.1461038961038961 0.16883116883116886 0.21996753246753248 0.31412337662337664 0.4090909090909091 0.7573051948051948 0.7930194805194806 0.8214285714285714 0.8222402597402597 0.8222402597402597 0.8189935064935064 0.8108766233766234 0.8051948051948052 0.8035714285714286 0.8035714285714286 0.8165584415584416 0.8173701298701299 0.8181818181818182,0.8138528138528138 0.8138528138528138 0.8138528138528138 0.8138528138528138 0.8138528138528138 0.8138528138528138 0.8138528138528138 0.8138528138528138 0.8138528138528138 0.8138528138528138 0.8138528138528138 0.8138528138528138 0.8138528138528138 0.8138528138528138 0.8138528138528138 0.8138528138528138 0.8138528138528138 0.8138528138528138 0.8138528138528138 0.8138528138528138 0.8138528138528138 0.8138528138528138 0.8138528138528138 0.8138528138528138 0.8138528138528138 0.8138528138528138 0.8138528138528138 0.8138528138528138 0.8138528138528138 0.8138528138528138 0.8138528138528138 0.8138528138528138 0.8138528138528138 0.8138528138528138 0.8138528138528138 0.8138528138528138 0.8138528138528138 0.7857142857142857 0.737012987012987 0.670995670995671 0.5887445887445888 0.27056277056277056 0.21645021645021645 0.13203463203463206 0.07034632034632038 0.003246753246753276 0.0010822510822511287 0.0010822510822511287 0.0010822510822511287 0.0010822510822511287 0.0010822510822511287 0.004329004329004293 0.028138528138528133 0.06385281385281383 0.08116883116883122 0.10497835497835496 0.10822510822510822 0.11904761904761907 0.11904761904761907 0.11904761904761907 0.11904761904761907 0.11904761904761907 0.11904761904761907 0.11904761904761907 0.11904761904761907 0.12445887445887448 0.12445887445887448 0.12445887445887448,133.29999999998836 153.2999999999884 173.29999999998836 193.29999999998842 213.29999999998842 233.29999999998842 253.29999999998842 273.2999999999884 293.29999999998836 313.29999999998836 333.29999999998836 353.2999999999884 373.2999999999884 393.2999999999884 413.2999999999884 433.2999999999884 453.2999999999884 473.2999999999884 493.2999999999884 513.2999999999884 533.2999999999884 553.2999999999884 573.2999999999884 593.2999999999884 613.2999999999884 633.2999999999884 653.2999999999884 673.2999999999884 693.2999999999884 713.2999999999884 733.2999999999884 753.2999999999884 773.2999999999884 793.2999999999884 813.2999999999884 833.2999999999884 853.2999999999884 873.2999999999884 893.2999999999884 913.2999999999884 933.2999999999884 953.2999999999884 973.2999999999884 993.2999999999884 1013.2999999999884 1033.2999999999884 1053.2999999999884 1073.2999999999884 1093.2999999999884 1113.2999999999884 1133.2999999999886 1153.2999999999886 1173.2999999999886 1193.2999999999886 1213.2999999999886 1233.2999999999886 1253.2999999999886 1273.2999999999886 1293.2999999999886 1313.2999999999886 1333.2999999999886 1353.2999999999886 1373.2999999999886 1393.2999999999884 1413.2999999999884 1433.2999999999884 1453.2999999999884 1473.2999999999884
cb_06,18.0,enc_trial,stim,response,STEM students,980.1000000089407,enc_trial,1.0,18.0,s_s_20_2,student_stem,fold-d,dna model,6.0,unique,far,paired,s_s_20_2.jpg,stem,student-b1,STEM students,Fine Arts students,sub-56,1.0,1.0,1.0,1.0,0.4845779220779221 0.4334415584415585 0.3806818181818182 0.32711038961038963 0.2751623376623377 0.2362012987012987 0.21672077922077929 0.2150974025974026 0.21185064935064926 0.2077922077922078 0.20292207792207792 0.2021103896103896 0.2012987012987013 0.2012987012987013 0.1939935064935065 0.18993506493506493 0.1826298701298701 0.1793831168831169 0.1728896103896104 0.1672077922077922 0.1599025974025974 0.15016233766233766 0.14691558441558442,0.7987012987012987 0.7261904761904762 0.6179653679653679 0.4989177489177489 0.3798701298701299 0.2402597402597403 0.14177489177489178 0.13203463203463206 0.11688311688311692 0.1114718614718615 0.10606060606060608 0.10389610389610393 0.10389610389610393 0.10389610389610393 0.10389610389610393 0.10389610389610393 0.10389610389610393 0.10606060606060608 0.10822510822510822 0.11363636363636365 0.12229437229437234 0.13203463203463206 0.1341991341991342,499.7999999999884 519.7999999999884 539.7999999999884 559.7999999999881 579.7999999999881 599.7999999999881 619.7999999999881 639.799999999988 659.7999999999879 679.7999999999879 699.7999999999879 719.7999999999878 739.7999999999878 759.7999999999878 779.7999999999878 799.7999999999877 819.7999999999873 839.7999999999873 859.7999999999873 879.7999999999872 899.7999999999872 919.7999999999872 939.7999999999872
cb_06,19.0,enc_trial,stim,response,Fine Arts students,1289.3999999999942,enc_trial,1.0,19.0,s_a_06_1,student_art,fold-d,pastels,6.0,unique,far,paired,s_a_06_1.jpg,art,student-b1,STEM students,Fine Arts students,sub-56,1.0,1.0,1.0,1.0,0.5162337662337663 0.5162337662337663 0.5162337662337663 0.5162337662337663 0.5162337662337663 0.5202922077922078 0.5275974025974026 0.5357142857142857 0.551948051948052 0.5925324675324676 0.7451298701298701 0.825487012987013 0.9180194805194806 0.935064935064935 0.9472402597402596 0.9472402597402596 0.9448051948051948 0.94237012987013 0.9415584415584416 0.939935064935065 0.9366883116883116 0.9342532467532468 0.9310064935064936 0.9147727272727272 0.9090909090909092 0.8985389610389609 0.8798701298701299 0.8790584415584416,0.8138528138528138 0.8116883116883117 0.8106060606060606 0.8084415584415584 0.8051948051948052 0.7900432900432901 0.7727272727272727 0.7521645021645021 0.7088744588744589 0.6244588744588744 0.3722943722943723 0.26082251082251084 0.14826839826839822 0.1255411255411255 0.10930735930735937 0.10822510822510822 0.10822510822510822 0.10822510822510822 0.10822510822510822 0.10822510822510822 0.11255411255411253 0.11688311688311692 0.12229437229437234 0.14177489177489178 0.1471861471861472 0.15367965367965364 0.15909090909090906 0.15909090909090906,649.8999999999943 669.8999999999943 689.8999999999942 709.8999999999942 729.8999999999942 749.8999999999942 769.8999999999942 789.8999999999942 809.8999999999942 829.8999999999942 849.8999999999942 869.8999999999942 889.8999999999942 909.8999999999944 929.8999999999944 949.8999999999944 969.8999999999944 989.8999999999944 1009.8999999999944 1029.8999999999942 1049.8999999999942 1069.8999999999942 1089.8999999999942 1109.8999999999942 1129.8999999999942 1149.8999999999942 1169.8999999999942 1189.8999999999942
cb_06,20.0,enc_trial,stim,response,Fine Arts students,980.9000000089287,enc_trial,1.0,20.0,s_a_03_2,student_art,fold-e,palette,6.0,unique,close,paired,s_a_03_2.jpg,art,student-b1,STEM students,Fine Arts students,sub-56,1.0,1.0,1.0,1.0,0.5 0.525974025974026 0.6063311688311688 0.6444805194805194 0.7686688311688312 0.8376623376623377 0.8400974025974026 0.8400974025974026 0.8400974025974026 0.8400974025974026 0.8409090909090909 0.8409090909090909 0.8409090909090909 0.8409090909090909 0.8409090909090909 0.8417207792207793,0.7835497835497836 0.7023809523809523 0.5281385281385281 0.4653679653679653 0.2640692640692641 0.1428571428571429 0.14177489177489178 0.14177489177489178 0.14177489177489178 0.14177489177489178 0.1428571428571429 0.15259740259740262 0.15909090909090906 0.1601731601731602 0.1601731601731602 0.1612554112554112,600.1999999999825 620.1999999999825 640.1999999999825 660.1999999999825 680.1999999999825 700.1999999999824 720.1999999999824 740.1999999999824 760.1999999999824 780.1999999999824 800.1999999999824 820.1999999999824 840.1999999999824 860.1999999999824 880.1999999999824 900.1999999999824
cb_06,21.0,enc_trial,stim,response,STEM students,1124.7999999999884,enc_trial,1.0,21.0,s_s_17_2,student_stem,fold-e,ring stand,6.0,unique,close,paired,s_s_17_2.jpg,stem,student-b1,STEM students,Fine Arts students,sub-56,1.0,1.0,1.0,1.0,0.4991883116883117 0.4870129870129871 0.4788961038961039 0.4310064935064935 0.3871753246753247 0.3003246753246753 0.2767857142857143 0.26785714285714285 0.2621753246753247 0.2597402597402597 0.23295454545454544 0.2297077922077922 0.2297077922077922 0.2297077922077922 0.2297077922077922 0.2264610389610389 0.21672077922077929 0.21103896103896105 0.20048701298701305 0.1737012987012987 0.1672077922077922 0.15422077922077926 0.1534090909090909,0.8257575757575757 0.7824675324675325 0.7554112554112554 0.6352813852813852 0.5367965367965368 0.35389610389610393 0.2987012987012987 0.2673160173160173 0.24783549783549785 0.2359307359307359 0.20021645021645013 0.1915584415584416 0.1915584415584416 0.19047619047619047 0.18831168831168832 0.18398268398268405 0.1742424242424242 0.17207792207792205 0.17099567099567106 0.16774891774891776 0.16666666666666666 0.1655844155844156 0.1655844155844156,550.0 570.0 590.0 610.0 630.0 650.0 670.0 690.0 710.0 730.0 750.0 770.0 790.0 810.0 830.0 850.0 870.0 890.0 910.0 930.0 950.0 970.0 990.0
cb_06,22.0,enc_trial,stim,response,STEM students,1148.2000000119149,enc_trial,1.0,22.0,s_sh_24_2,student_shared,fold-b,desk organizer,6.0,competing,far,paired,s_sh_24_2.jpg,,student-b1,STEM students,Fine Arts students,sub-56,1.0,1.0,0.0,0.0,0.5064935064935064 0.510551948051948 0.512987012987013 0.512987012987013 0.512987012987013 0.4967532467532468 0.4448051948051948 0.4107142857142857 0.3668831168831169 0.3376623376623377 0.15584415584415584 0.10795454545454546 0.08685064935064933 0.08035714285714286 0.07954545454545454 0.07954545454545454 0.07954545454545454 0.07954545454545454 0.07954545454545454 0.07954545454545454 0.08522727272727272 0.09090909090909093 0.10308441558441556 0.112012987012987 0.12175324675324675 0.1314935064935065 0.13717532467532467,0.8300865800865801 0.8225108225108225 0.8181818181818181 0.8138528138528138 0.8073593073593074 0.7575757575757576 0.6417748917748918 0.5584415584415585 0.4837662337662337 0.4491341991341992 0.2673160173160173 0.2272727272727273 0.21212121212121213 0.2067099567099568 0.2056277056277056 0.2056277056277056 0.2056277056277056 0.2056277056277056 0.2056277056277056 0.2056277056277056 0.20346320346320346 0.20021645021645013 0.1958874458874459 0.1926406926406926 0.19047619047619047 0.18614718614718606 0.1818181818181817,533.1000000000058 553.1000000000058 573.1000000000057 593.1000000000057 613.1000000000057 633.1000000000057 653.1000000000057 673.1000000000057 693.1000000000058 713.1000000000058 733.1000000000058 753.1000000000058 773.1000000000058 793.1000000000058 813.1000000000058 833.1000000000058 853.1000000000058 873.1000000000058 893.1000000000058 913.1000000000058 933.1000000000058 953.1000000000058 973.1000000000058 993.1000000000058 1013.1000000000058 1033.1000000000058 1053.1000000000058
cb_06,23.0,enc_trial,stim,response,STEM students,1362.6000000029746,enc_trial,1.0,23.0,s_sh_11_1,student_shared,fold-b,pencil case,6.0,competing,far,paired,s_sh_11_1.jpg,,student-b1,STEM students,Fine Arts students,sub-56,1.0,1.0,0.0,1.0,0.4967532467532468 0.5 0.510551948051948 0.5227272727272727 0.5389610389610391 0.5771103896103896 0.6047077922077922 0.6047077922077922 0.6006493506493507 0.599025974025974 0.599025974025974 0.6087662337662337 0.6087662337662337 0.6087662337662337 0.5852272727272727 0.5430194805194806 0.525974025974026 0.4805194805194805 0.3936688311688312 0.3189935064935065 0.15422077922077926 0.0900974025974026 0.0689935064935065 0.06655844155844155 0.06493506493506493 0.06493506493506493 0.06412337662337662 0.06412337662337662 0.06412337662337662 0.06412337662337662 0.06412337662337662 0.06412337662337662 0.06412337662337662 0.06412337662337662 0.06737012987012987 0.09496753246753246 0.1185064935064935 0.12743506493506493 0.1323051948051948,0.8214285714285714 0.7954545454545454 0.7619047619047619 0.7218614718614719 0.6428571428571428 0.4891774891774892 0.3376623376623377 0.2770562770562771 0.25108225108225113 0.2326839826839827 0.2186147186147186 0.2067099567099568 0.2067099567099568 0.2067099567099568 0.2012987012987013 0.19047619047619047 0.18614718614718606 0.1818181818181817 0.17532467532467533 0.17532467532467533 0.17532467532467533 0.1829004329004329 0.1829004329004329 0.1829004329004329 0.1829004329004329 0.1829004329004329 0.1829004329004329 0.1829004329004329 0.1829004329004329 0.1829004329004329 0.1829004329004329 0.1829004329004329 0.1829004329004329 0.1829004329004329 0.1829004329004329 0.18398268398268405 0.1829004329004329 0.18073593073593075 0.17965367965367962,516.6000000000058 536.6000000000058 556.6000000000058 576.6000000000057 596.6000000000057 616.6000000000057 636.6000000000057 656.6000000000057 676.6000000000057 696.6000000000058 716.6000000000058 736.6000000000058 756.6000000000058 776.6000000000058 796.6000000000058 816.6000000000058 836.6000000000058 856.6000000000058 876.6000000000058 896.6000000000058 916.6000000000058 936.6000000000058 956.6000000000058 976.6000000000058 996.6000000000058 1016.6000000000058 1036.6000000000058 1056.6000000000058 1076.6000000000058 1096.6000000000058 1116.6000000000058 1136.6000000000058 1156.6000000000058 1176.6000000000058 1196.6000000000058 1216.6000000000058 1236.6000000000058 1256.6000000000058 1276.6000000000058
cb_06,24.0,enc_trial,stim,response,Fine Arts students,2089.5000000029686,enc_trial,1.0,24.0,s_sh_10_1,student_shared,fold-b,scissors,6.0,competing,far,paired,s_sh_10_1.jpg,,student-b1,STEM students,Fine Arts students,sub-56,0.0,0.0,0.0,1.0,0.5032467532467533 0.5064935064935064 0.5162337662337663 0.5332792207792207 0.564935064935065 0.6331168831168831 0.6769480519480521 0.7540584415584416 0.7751623376623377 0.7759740259740259 0.7759740259740259 0.7751623376623377 0.7735389610389609 0.7719155844155844 0.7702922077922078 0.7516233766233766 0.7094155844155844 0.6387987012987013 0.5413961038961039 0.452922077922078 0.3482142857142857 0.33603896103896097 0.3336038961038961 0.3295454545454545 0.3157467532467532 0.2694805194805195 0.2637987012987013 0.26136363636363635 0.2508116883116883 0.2345779220779221 0.2077922077922078 0.1948051948051948 0.18181818181818185 0.17451298701298698 0.17126623376623376 0.17126623376623376 0.17045454545454544 0.17045454545454544 0.17045454545454544 0.16964285714285715 0.16964285714285715 0.1728896103896104 0.1801948051948052 0.21996753246753248 0.23376623376623376 0.2418831168831169 0.2508116883116883 0.286525974025974 0.3685064935064935 0.4983766233766234 0.6258116883116883 0.6363636363636364 0.6363636363636364 0.6363636363636364 0.6363636363636364 0.661525974025974 0.6663961038961039 0.6680194805194806 0.6720779220779219 0.6818181818181818 0.7597402597402597 0.7597402597402597 0.7678571428571429 0.7694805194805194 0.7702922077922078 0.8003246753246753 0.8392857142857143 0.8555194805194806 0.8676948051948052 0.8701298701298701 0.8709415584415584 0.8709415584415584 0.8709415584415584 0.8693181818181818 0.8668831168831169 0.8652597402597403,0.8138528138528138 0.7813852813852814 0.7316017316017316 0.6298701298701299 0.5032467532467533 0.3203463203463204 0.2456709956709957 0.15800865800865804 0.13744588744588748 0.13636363636363635 0.13636363636363635 0.13636363636363635 0.13744588744588748 0.14069264069264065 0.14177489177489178 0.14826839826839822 0.15800865800865804 0.1699134199134199 0.17532467532467533 0.17532467532467533 0.15476190476190474 0.14826839826839822 0.14610389610389607 0.14069264069264065 0.13311688311688308 0.12229437229437234 0.12121212121212124 0.12012987012987007 0.11904761904761907 0.11904761904761907 0.12770562770562766 0.13095238095238093 0.13528138528138536 0.13744588744588748 0.13961038961038966 0.13961038961038966 0.13961038961038966 0.13961038961038966 0.14069264069264065 0.14069264069264065 0.14069264069264065 0.14069264069264065 0.14177489177489178 0.14826839826839822 0.14826839826839822 0.14826839826839822 0.14610389610389607 0.13636363636363635 0.1341991341991342 0.12229437229437234 0.11471861471861465 0.11363636363636365 0.11363636363636365 0.11363636363636365 0.11255411255411253 0.11688311688311692 0.12012987012987007 0.12229437229437234 0.12229437229437234 0.12229437229437234 0.11363636363636365 0.11363636363636365 0.11363636363636365 0.11363636363636365 0.11363636363636365 0.11904761904761907 0.12878787878787878 0.13528138528138536 0.14069264069264065 0.1428571428571429 0.1428571428571429 0.1428571428571429 0.1428571428571429 0.1428571428571429 0.1428571428571429 0.1428571428571429,449.8999999999942 469.8999999999942 489.8999999999942 509.8999999999942 529.8999999999942 549.8999999999942 569.8999999999943 589.8999999999943 609.8999999999943 629.8999999999943 649.8999999999943 669.8999999999943 689.8999999999942 709.8999999999942 729.8999999999942 749.8999999999942 769.8999999999942 789.8999999999942 809.8999999999942 829.8999999999942 849.8999999999942 869.8999999999942 889.8999999999942 909.8999999999942 929.8999999999942 949.8999999999942 969.8999999999942 989.8999999999942 1009.8999999999942 1029.8999999999942 1049.8999999999942 1069.8999999999942 1089.8999999999942 1109.8999999999942 1129.8999999999942 1149.8999999999942 1169.8999999999942 1189.8999999999942 1209.8999999999942 1229.8999999999942 1249.8999999999942 1269.8999999999942 1289.8999999999942 1309.8999999999942 1329.8999999999942 1349.8999999999942 1369.8999999999942 1389.8999999999942 1409.8999999999942 1429.8999999999942 1449.8999999999942 1469.8999999999942 1489.8999999999942 1509.8999999999942 1529.8999999999942 1549.8999999999942 1569.8999999999942 1589.8999999999942 1609.8999999999942 1629.8999999999942 1649.8999999999942 1669.8999999999942 1689.8999999999942 1709.8999999999942 1729.8999999999942 1749.8999999999942 1769.8999999999942 1789.8999999999942 1809.8999999999944 1829.8999999999944 1849.8999999999944 1869.8999999999944 1889.8999999999944 1909.8999999999944 1929.8999999999944 1949.8999999999944
cb_06,25.0,enc_trial,stim,response,Fine Arts students,1477.9000000059605,enc_trial,1.0,25.0,s_sh_20_1,student_shared,fold-c,tape,6.0,competing,close,paired,s_sh_20_1.jpg,,student-b1,STEM students,Fine Arts students,sub-56,1.0,1.0,0.0,0.0,0.497564935064935 0.4918831168831169 0.4886363636363637 0.4829545454545455 0.4642857142857143 0.4301948051948052 0.3709415584415585 0.3035714285714285 0.24025974025974026 0.1972402597402597 0.15827922077922074 0.15584415584415584 0.15584415584415584 0.15584415584415584 0.15503246753246752 0.1525974025974026 0.1534090909090909 0.18425324675324675 0.25405844155844154 0.3417207792207792 0.6818181818181818 0.8011363636363636 0.8360389610389609 0.8409090909090909 0.8409090909090909 0.8425324675324676 0.8441558441558441 0.8449675324675324 0.8465909090909091 0.8498376623376623 0.8587662337662337 0.8587662337662337 0.8587662337662337 0.8547077922077922 0.8457792207792207 0.8417207792207793 0.8417207792207793 0.8417207792207793 0.8417207792207793 0.8417207792207793 0.8425324675324676,0.8235930735930737 0.7965367965367965 0.7640692640692641 0.7316017316017316 0.685064935064935 0.6147186147186148 0.5303030303030303 0.47402597402597396 0.4372294372294372 0.4274891774891775 0.4134199134199135 0.4069264069264069 0.4004329004329005 0.3896103896103896 0.37662337662337664 0.3582251082251082 0.3484848484848485 0.3311688311688312 0.30627705627705626 0.27380952380952384 0.2056277056277056 0.17099567099567106 0.16341991341991347 0.16341991341991347 0.16341991341991347 0.16450216450216448 0.1655844155844156 0.1655844155844156 0.16666666666666666 0.16883116883116878 0.1742424242424242 0.17640692640692646 0.17640692640692646 0.17640692640692646 0.17640692640692646 0.17532467532467533 0.17532467532467533 0.17532467532467533 0.17532467532467533 0.17532467532467533 0.17532467532467533,566.7999999999884 586.7999999999884 606.7999999999884 626.7999999999884 646.7999999999884 666.7999999999884 686.7999999999884 706.7999999999884 726.7999999999884 746.7999999999884 766.7999999999884 786.7999999999884 806.7999999999884 826.7999999999884 846.7999999999884 866.7999999999884 886.7999999999884 906.7999999999884 926.7999999999884 946.7999999999884 966.7999999999884 986.7999999999884 1006.7999999999884 1026.7999999999884 1046.7999999999884 1066.7999999999884 1086.7999999999884 1106.7999999999884 1126.7999999999886 1146.7999999999886 1166.7999999999886 1186.7999999999886 1206.7999999999886 1226.7999999999886 1246.7999999999886 1266.7999999999886 1286.7999999999886 1306.7999999999886 1326.7999999999886 1346.7999999999886 1366.7999999999886
cb_06,26.0,enc_trial,stim,response,STEM students,995.9000000089287,enc_trial,1.0,26.0,s_s_11_2,student_stem,fold-d,scientific scale,6.0,unique,far,paired,s_s_11_2.jpg,stem,student-b1,STEM students,Fine Arts students,sub-56,1.0,1.0,1.0,1.0,0.5008116883116883 0.4959415584415585 0.4756493506493506 0.4090909090909091 0.34902597402597396 0.2418831168831169 0.2102272727272728 0.19642857142857145 0.1858766233766234 0.1826298701298701 0.17775974025974026 0.1728896103896104 0.17207792207792208 0.1663961038961039 0.16071428571428573 0.15827922077922074 0.15827922077922074,0.8008658008658008 0.777056277056277 0.7023809523809523 0.5660173160173161 0.4751082251082252 0.3041125541125541 0.2370129870129869 0.1991341991341992 0.17640692640692646 0.16883116883116878 0.15800865800865804 0.14177489177489178 0.12770562770562766 0.1158008658008658 0.10822510822510822 0.10497835497835496 0.10389610389610393,533.1999999999825 553.1999999999825 573.1999999999825 593.1999999999825 613.1999999999825 633.1999999999825 653.1999999999825 673.1999999999825 693.1999999999824 713.1999999999824 733.1999999999824 753.1999999999824 773.1999999999824 793.1999999999824 813.1999999999824 833.1999999999824 853.1999999999824
cb_06,27.0,enc_trial,stim,response,STEM students,1012.8999999999942,enc_trial,1.0,27.0,s_s_17_1,student_stem,fold-e,ring stand,6.0,unique,close,paired,s_s_17_1.jpg,stem,student-b1,STEM students,Fine Arts students,sub-56,1.0,1.0,1.0,1.0,0.4910714285714286 0.4618506493506493 0.4172077922077922 0.31006493506493504 0.21834415584415584 0.17532467532467533 0.0900974025974026 0.0900974025974026 0.08928571428571429 0.08928571428571429 0.0900974025974026 0.09090909090909093 0.09090909090909093 0.09334415584415584 0.0974025974025974 0.10064935064935067 0.10146103896103896 0.10551948051948053 0.10876623376623376 0.13392857142857142 0.15016233766233766,0.8268398268398268 0.7781385281385281 0.7164502164502164 0.5595238095238095 0.4058441558441559 0.33225108225108224 0.1948051948051948 0.1937229437229437 0.1926406926406926 0.18398268398268405 0.18073593073593075 0.17316017316017318 0.17099567099567106 0.16883116883116878 0.16774891774891776 0.1655844155844156 0.1655844155844156 0.16233766233766234 0.16233766233766234 0.15476190476190474 0.1515151515151515,533.3999999999942 553.3999999999942 573.3999999999943 593.3999999999943 613.3999999999943 633.3999999999943 653.3999999999943 673.3999999999943 693.3999999999942 713.3999999999942 733.3999999999942 753.3999999999942 773.3999999999942 793.3999999999942 813.3999999999942 833.3999999999942 853.3999999999942 873.3999999999942 893.3999999999942 913.3999999999942 933.3999999999942
cb_06,28.0,enc_trial,stim,response,STEM students,1209.5000000029684,enc_trial,1.0,28.0,s_a_10_1,student_art,fold-a-single,tripod,6.0,unique,,single,s_a_10_1.jpg,art,student-b1,STEM students,Fine Arts students,sub-56,0.0,,0.0,,0.5040584415584416 0.5040584415584416 0.5040584415584416 0.5040584415584416 0.5040584415584416 0.5040584415584416 0.5040584415584416 0.5040584415584416 0.5040584415584416 0.5040584415584416 0.5040584415584416 0.5048701298701299 0.5064935064935064 0.5219155844155844 0.5389610389610391 0.5527597402597403 0.5584415584415584 0.5584415584415584 0.5592532467532467 0.5592532467532467 0.5592532467532467 0.5592532467532467 0.5592532467532467 0.5592532467532467 0.5592532467532467 0.5592532467532467 0.5592532467532467 0.5592532467532467 0.5592532467532467 0.5576298701298701 0.5073051948051948 0.3944805194805195 0.31493506493506496 0.2483766233766234 0.213474025974026 0.1663961038961039 0.15665584415584416 0.15016233766233766 0.14691558441558442 0.1444805194805195 0.14366883116883114 0.13717532467532467 0.12987012987012986 0.1266233766233766 0.1266233766233766 0.1266233766233766,0.8538961038961039 0.8538961038961039 0.8538961038961039 0.8538961038961039 0.8538961038961039 0.8538961038961039 0.8538961038961039 0.8538961038961039 0.8538961038961039 0.8538961038961039 0.8376623376623377 0.8041125541125541 0.685064935064935 0.5844155844155844 0.5054112554112554 0.4642857142857143 0.4329004329004329 0.4307359307359308 0.4285714285714286 0.4285714285714286 0.4285714285714286 0.4285714285714286 0.4285714285714286 0.4285714285714286 0.4285714285714286 0.4285714285714286 0.4285714285714286 0.4285714285714286 0.4285714285714286 0.4285714285714286 0.4069264069264069 0.3409090909090909 0.2824675324675324 0.2370129870129869 0.21212121212121213 0.18073593073593075 0.17640692640692646 0.17099567099567106 0.1655844155844156 0.16233766233766234 0.1601731601731602 0.1558441558441559 0.1515151515151515 0.14610389610389607 0.14610389610389607 0.14502164502164505,200.0 220.0 240.0 260.0 280.0 300.0 320.0 340.0 360.0 380.0 400.0 420.0 440.0 460.0 480.0 500.0 520.0 540.0 560.0 580.0 600.0 620.0 640.0 660.0 680.0 700.0 720.0 740.0 760.0 780.0 800.0 820.0 840.0 860.0 880.0 900.0 920.0 940.0 960.0 980.0 1000.0 1020.0 1040.0 1060.0 1080.0 1100.0
cb_06,29.0,enc_trial,stim,response,Fine Arts students,1373.9000000119267,enc_trial,1.0,29.0,s_sh_07_1,student_shared,fold-a-single,ruler,6.0,competing,,single,s_sh_07_1.jpg,,student-b1,STEM students,Fine Arts students,sub-56,1.0,,0.0,,0.5211038961038961 0.5227272727272727 0.5227272727272727 0.5227272727272727 0.5227272727272727 0.5227272727272727 0.5227272727272727 0.5227272727272727 0.5227272727272727 0.5227272727272727 0.5227272727272727 0.5227272727272727 0.5227272727272727 0.5227272727272727 0.5227272727272727 0.5227272727272727 0.5227272727272727 0.5227272727272727 0.5227272727272727 0.5227272727272727 0.5227272727272727 0.5227272727272727 0.5227272727272727 0.5227272727272727 0.5227272727272727 0.5227272727272727 0.5227272727272727 0.5227272727272727 0.5324675324675324 0.5746753246753247 0.6331168831168831 0.8027597402597403 0.8871753246753247 0.9366883116883116 0.9512987012987012 0.9529220779220781 0.9512987012987012 0.9496753246753248 0.9480519480519479 0.9464285714285714 0.9415584415584416 0.9277597402597404 0.8831168831168831 0.8733766233766234 0.8555194805194806 0.8392857142857143 0.8376623376623377 0.8327922077922078 0.8295454545454546 0.8287337662337663 0.8287337662337663 0.8287337662337663 0.8287337662337663 0.8327922077922078 0.8352272727272727 0.8409090909090909 0.8409090909090909 0.8409090909090909 0.8417207792207793 0.8425324675324676 0.8457792207792207 0.8506493506493507 0.8555194805194806 0.8571428571428571,0.8430735930735931 0.8430735930735931 0.8430735930735931 0.8430735930735931 0.8430735930735931 0.8430735930735931 0.8430735930735931 0.8430735930735931 0.8430735930735931 0.8430735930735931 0.8430735930735931 0.8430735930735931 0.8430735930735931 0.8430735930735931 0.8430735930735931 0.8430735930735931 0.8430735930735931 0.8430735930735931 0.8430735930735931 0.8430735930735931 0.8430735930735931 0.8430735930735931 0.8430735930735931 0.8430735930735931 0.8430735930735931 0.8430735930735931 0.8430735930735931 0.841991341991342 0.7889610389610391 0.7045454545454546 0.5898268398268398 0.35389610389610393 0.2662337662337663 0.21645021645021645 0.2023809523809524 0.2012987012987013 0.20021645021645013 0.19805194805194806 0.1958874458874459 0.1948051948051948 0.19047619047619047 0.1872294372294372 0.1785714285714286 0.17748917748917747 0.17207792207792205 0.16233766233766234 0.1601731601731602 0.15367965367965364 0.15043290043290047 0.14826839826839822 0.14826839826839822 0.14826839826839822 0.14826839826839822 0.14826839826839822 0.14935064935064934 0.15043290043290047 0.15043290043290047 0.15043290043290047 0.15043290043290047 0.15043290043290047 0.1515151515151515 0.15259740259740262 0.15259740259740262 0.15259740259740262,0.0 20.0 40.0 60.0 80.0 100.0 120.0 140.0 160.0 180.0 200.0 220.0 240.0 260.0 280.0 300.0 320.0 340.0 360.0 380.0 400.0 420.0 440.0 460.0 480.0 500.0 520.0 540.0 560.0 580.0 600.0 620.0 640.0 660.0 680.0 700.0 720.0 740.0 760.0 780.0 800.0 820.0 840.0 860.0 880.0 900.0 920.0 940.0 960.0 980.0 1000.0 1020.0 1040.0 1060.0 1080.0 1100.0 1120.0 1140.0 1160.0 1180.0 1200.0 1220.0 1240.0 1260.0
cb_06,30.0,enc_trial,stim,response,Fine Arts students,2375.4000000059605,enc_trial,1.0,30.0,s_sh_14_2,student_shared,fold-b,printer,6.0,competing,far,paired,s_sh_14_2.jpg,,student-b1,STEM students,Fine Arts students,sub-56,1.0,1.0,0.0,1.0,0.4935064935064935 0.4935064935064935 0.4935064935064935 0.4935064935064935 0.4935064935064935 0.4935064935064935 0.4935064935064935 0.4935064935064935 0.4935064935064935 0.4935064935064935 0.4935064935064935 0.4935064935064935 0.4935064935064935 0.4935064935064935 0.4935064935064935 0.4935064935064935 0.4935064935064935 0.4935064935064935 0.4935064935064935 0.4935064935064935 0.4935064935064935 0.4935064935064935 0.4935064935064935 0.4935064935064935 0.4813311688311688 0.46103896103896097 0.4415584415584416 0.4147727272727273 0.3717532467532468 0.32142857142857145 0.2857142857142857 0.2767857142857143 0.2767857142857143 0.2767857142857143 0.2767857142857143 0.2767857142857143 0.2767857142857143 0.2767857142857143 0.2775974025974026 0.28084415584415584 0.2840909090909091 0.2800324675324675 0.26785714285714285 0.2459415584415585 0.224025974025974 0.1915584415584416 0.1858766233766234 0.18425324675324675 0.1826298701298701 0.1810064935064935 0.16071428571428573 0.1396103896103896 0.1396103896103896 0.1396103896103896 0.14123376623376624 0.16477272727272727 0.20535714285714285 0.21266233766233766 0.213474025974026 0.213474025974026 0.21428571428571427 0.22564935064935066 0.2353896103896104 0.2353896103896104 0.2353896103896104 0.2207792207792208 0.21753246753246752 0.21266233766233766 0.21103896103896105 0.21185064935064926 0.2621753246753247 0.3717532467532468 0.5097402597402597 0.7037337662337663 0.8928571428571429 1.0146103896103895 1.0162337662337662 1.0154220779220782 1.00487012987013 0.9886363636363636 0.9569805194805194 0.9569805194805194 0.9724025974025974 0.9748376623376624 0.9756493506493508 0.9659090909090908 0.9537337662337664 0.9293831168831168 0.8896103896103896 0.8603896103896104 0.8133116883116883 0.8116883116883117 0.8116883116883117 0.8125 0.8165584415584416 0.8198051948051948 0.8198051948051948 0.8198051948051948 0.8198051948051948 0.8206168831168831 0.8246753246753247 0.825487012987013 0.825487012987013 0.825487012987013 0.825487012987013 0.825487012987013 0.8279220779220781 0.8327922077922078 0.8360389610389609 0.8368506493506493,0.8160173160173161 0.8160173160173161 0.8160173160173161 0.8160173160173161 0.8160173160173161 0.8160173160173161 0.8160173160173161 0.8160173160173161 0.8160173160173161 0.8160173160173161 0.8160173160173161 0.8160173160173161 0.8160173160173161 0.8160173160173161 0.8160173160173161 0.8160173160173161 0.8160173160173161 0.8160173160173161 0.8160173160173161 0.8160173160173161 0.8160173160173161 0.8160173160173161 0.8160173160173161 0.814935064935065 0.7478354978354979 0.4718614718614719 0.32792207792207795 0.24783549783549785 0.2023809523809524 0.17640692640692646 0.1601731601731602 0.15367965367965364 0.15367965367965364 0.15367965367965364 0.15367965367965364 0.15367965367965364 0.15367965367965364 0.15367965367965364 0.15367965367965364 0.1558441558441559 0.15692640692640691 0.15692640692640691 0.15692640692640691 0.1601731601731602 0.16666666666666666 0.1699134199134199 0.1699134199134199 0.1699134199134199 0.1699134199134199 0.1699134199134199 0.17099567099567106 0.17316017316017318 0.17316017316017318 0.17316017316017318 0.1742424242424242 0.17532467532467533 0.1742424242424242 0.17316017316017318 0.17316017316017318 0.17316017316017318 0.17316017316017318 0.1742424242424242 0.17532467532467533 0.17532467532467533 0.17532467532467533 0.17532467532467533 0.1742424242424242 0.17316017316017318 0.17316017316017318 0.17207792207792205 0.16233766233766234 0.15043290043290047 0.12878787878787878 0.10173160173160176 0.08658008658008652 0.09848484848484852 0.10173160173160176 0.10389610389610393 0.10930735930735937 0.11255411255411253 0.11471861471861465 0.11471861471861465 0.12445887445887448 0.12770562770562766 0.12878787878787878 0.12878787878787878 0.12770562770562766 0.12337662337662335 0.11688311688311692 0.1158008658008658 0.1158008658008658 0.11688311688311692 0.11688311688311692 0.11796536796536795 0.11904761904761907 0.12121212121212124 0.12121212121212124 0.12121212121212124 0.12121212121212124 0.12121212121212124 0.12229437229437234 0.12229437229437234 0.12229437229437234 0.12229437229437234 0.12229437229437234 0.12229437229437234 0.12445887445887448 0.12878787878787878 0.1298701298701299 0.13203463203463206,50.0 70.0 90.0 110.0 130.0 150.0 170.0 190.0 210.0 230.0 250.0 270.0 290.0 310.0 330.0 350.0 370.0 390.0 410.0 430.0 450.0 470.0 490.0 510.0 530.0 550.0 570.0 590.0 610.0 630.0 650.0 670.0 690.0 710.0 730.0 750.0 770.0 790.0 810.0 830.0 850.0 870.0 890.0 910.0 930.0 950.0 970.0 990.0 1010.0 1030.0 1050.0 1070.0 1090.0 1110.0 1130.0 1150.0 1170.0 1190.0 1210.0 1230.0 1250.0 1270.0 1290.0 1310.0 1330.0 1350.0 1370.0 1390.0 1410.0 1430.0 1450.0 1470.0 1490.0 1510.0 1530.0 1550.0 1570.0 1590.0 1610.0 1630.0 1650.0 1670.0 1690.0 1710.0 1730.0 1750.0 1770.0 1790.0 1810.0 1830.0 1850.0 1870.0 1890.0 1910.0 1930.0 1950.0 1970.0 1990.0 2010.0 2030.0 2050.0 2070.0 2090.0 2110.0 2130.0 2150.0 2170.0 2190.0 2210.0 2230.0
cb_06,31.0,enc_trial,stim,response,STEM students,1735.2000000119147,enc_trial,1.0,31.0,s_sh_20_2,student_shared,fold-c,tape,6.0,competing,close,paired,s_sh_20_2.jpg,,student-b1,STEM students,Fine Arts students,sub-56,1.0,1.0,0.0,0.0,0.4959415584415585 0.5073051948051948 0.5413961038961039 0.5876623376623377 0.6241883116883117 0.6550324675324676 0.7694805194805194 0.7889610389610391 0.8092532467532467 0.8125 0.8133116883116883 0.8141233766233766 0.8157467532467533 0.8165584415584416 0.8165584415584416 0.8165584415584416 0.8181818181818182 0.8214285714285714 0.8262987012987013 0.8319805194805194 0.8368506493506493 0.8457792207792207 0.8490259740259741 0.8425324675324676 0.8344155844155844 0.8327922077922078 0.8327922077922078 0.8311688311688312 0.8125 0.7735389610389609 0.7329545454545454 0.6915584415584416 0.547077922077922 0.3896103896103896 0.25243506493506496 0.07792207792207792 0.04220779220779222 0.041396103896103896 0.041396103896103896 0.041396103896103896 0.049512987012987016 0.05113636363636364 0.05113636363636364 0.05113636363636364 0.05113636363636364 0.05194805194805195 0.05844155844155844 0.06818181818181818 0.07711038961038963 0.0836038961038961 0.09415584415584416 0.09983766233766234 0.10146103896103896,0.8019480519480521 0.7521645021645021 0.6764069264069263 0.5800865800865801 0.4837662337662337 0.3896103896103896 0.2142857142857143 0.2023809523809524 0.18614718614718606 0.18506493506493504 0.18398268398268405 0.18398268398268405 0.18398268398268405 0.18398268398268405 0.18398268398268405 0.18398268398268405 0.18398268398268405 0.18398268398268405 0.18398268398268405 0.1818181818181817 0.1742424242424242 0.1612554112554112 0.15367965367965364 0.15043290043290047 0.14610389610389607 0.1428571428571429 0.1428571428571429 0.1428571428571429 0.14069264069264065 0.13744588744588748 0.13095238095238093 0.12229437229437234 0.11255411255411253 0.11255411255411253 0.1255411255411255 0.18073593073593075 0.18506493506493504 0.18506493506493504 0.18506493506493504 0.18506493506493504 0.18506493506493504 0.18506493506493504 0.18506493506493504 0.18506493506493504 0.18506493506493504 0.18506493506493504 0.18073593073593075 0.17748917748917747 0.17640692640692646 0.17207792207792205 0.16883116883116878 0.16666666666666666 0.16666666666666666,599.8999999999943 619.8999999999943 639.8999999999943 659.8999999999943 679.8999999999943 699.8999999999942 719.8999999999942 739.8999999999942 759.8999999999942 779.8999999999942 799.8999999999942 819.8999999999942 839.8999999999942 859.8999999999942 879.8999999999942 899.8999999999942 919.8999999999944 939.8999999999944 959.8999999999944 979.8999999999944 999.8999999999944 1019.8999999999944 1039.8999999999942 1059.8999999999942 1079.8999999999942 1099.8999999999942 1119.8999999999942 1139.8999999999942 1159.8999999999942 1179.8999999999942 1199.8999999999942 1219.8999999999942 1239.8999999999942 1259.8999999999942 1279.8999999999942 1299.8999999999942 1319.8999999999942 1339.8999999999942 1359.8999999999942 1379.8999999999942 1399.8999999999942 1419.8999999999942 1439.8999999999942 1459.8999999999942 1479.8999999999942 1499.8999999999942 1519.8999999999942 1539.8999999999942 1559.8999999999942 1579.8999999999942 1599.8999999999942 1619.8999999999942 1639.8999999999942
cb_06,32.0,enc_trial,stim,response,Fine Arts students,1209.5000000029684,enc_trial,1.0,32.0,s_a_06_2,student_art,fold-d,pastels,6.0,unique,far,paired,s_a_06_2.jpg,art,student-b1,STEM students,Fine Arts students,sub-56,1.0,1.0,1.0,1.0,0.4959415584415585 0.4967532467532468 0.5 0.5016233766233766 0.5202922077922078 0.5917207792207793 0.6493506493506493 0.7272727272727273 0.8092532467532467 0.8587662337662337 0.8798701298701299 0.9074675324675324 0.9099025974025974 0.9099025974025974 0.9099025974025974 0.9099025974025974 0.9099025974025974 0.9099025974025974 0.9009740259740259 0.8952922077922078 0.8887987012987013 0.8887987012987013 0.8887987012987013 0.8887987012987013 0.887987012987013 0.8855519480519479,0.7911255411255411 0.7673160173160173 0.7326839826839826 0.7132034632034632 0.6406926406926408 0.4664502164502165 0.3409090909090909 0.2348484848484849 0.15259740259740262 0.10389610389610393 0.08658008658008652 0.06601731601731597 0.06493506493506496 0.06493506493506496 0.06493506493506496 0.06493506493506496 0.06493506493506496 0.0757575757575758 0.09956709956709953 0.11363636363636365 0.1255411255411255 0.1255411255411255 0.12878787878787878 0.12878787878787878 0.13095238095238093 0.1341991341991342,649.7999999999884 669.7999999999884 689.7999999999884 709.7999999999884 729.7999999999884 749.7999999999884 769.7999999999884 789.7999999999884 809.7999999999884 829.7999999999884 849.7999999999884 869.7999999999884 889.7999999999884 909.7999999999884 929.7999999999884 949.7999999999884 969.7999999999884 989.7999999999884 1009.7999999999884 1029.7999999999884 1049.7999999999884 1069.7999999999884 1089.7999999999884 1109.7999999999884 1129.7999999999886 1149.7999999999886
cb_06,33.0,enc_trial,stim,response,STEM students,1314.8000000059544,enc_trial,1.0,33.0,s_sh_18_1,student_shared,fold-c,wall calendar,6.0,competing,close,paired,s_sh_18_1.jpg,,student-b1,STEM students,Fine Arts students,sub-56,1.0,1.0,1.0,1.0,0.5089285714285714 0.5413961038961039 0.5876623376623377 0.6590909090909091 0.7191558441558441 0.7873376623376623 0.8043831168831169 0.8125 0.8157467532467533 0.8157467532467533 0.8141233766233766 0.8133116883116883 0.8108766233766234 0.8003246753246753 0.7816558441558441 0.7224025974025974 0.5852272727272727 0.4496753246753247 0.3344155844155844 0.2597402597402597 0.16071428571428573 0.14204545454545456 0.13474025974025974 0.1331168831168831 0.1323051948051948 0.1314935064935065 0.1314935064935065 0.1314935064935065 0.1314935064935065 0.13068181818181818 0.125 0.11363636363636365,0.8095238095238095 0.7456709956709957 0.6785714285714286 0.5952380952380952 0.5151515151515151 0.3831168831168831 0.3225108225108225 0.275974025974026 0.2543290043290043 0.2456709956709957 0.2370129870129869 0.2305194805194805 0.224025974025974 0.21212121212121213 0.20021645021645013 0.1785714285714286 0.15476190476190474 0.1341991341991342 0.12229437229437234 0.12229437229437234 0.12229437229437234 0.12121212121212124 0.12012987012987007 0.12012987012987007 0.11796536796536795 0.11796536796536795 0.11796536796536795 0.11796536796536795 0.11796536796536795 0.11796536796536795 0.11688311688311692 0.11796536796536795,633.3999999999943 653.3999999999943 673.3999999999943 693.3999999999942 713.3999999999942 733.3999999999942 753.3999999999942 773.3999999999942 793.3999999999942 813.3999999999942 833.3999999999942 853.3999999999942 873.3999999999942 893.3999999999942 913.3999999999944 933.3999999999944 953.3999999999944 973.3999999999944 993.3999999999944 1013.3999999999944 1033.3999999999942 1053.3999999999942 1073.3999999999942 1093.3999999999942 1113.3999999999942 1133.3999999999942 1153.3999999999942 1173.3999999999942 1193.3999999999942 1213.3999999999942 1233.3999999999942 1253.3999999999942
cb_06,34.0,enc_trial,stim,response,STEM students,1114.2000000119149,enc_trial,1.0,34.0,s_sh_02_1,student_shared,fold-a-single,eraser,6.0,competing,,single,s_sh_02_1.jpg,,student-b1,STEM students,Fine Arts students,sub-56,1.0,,1.0,,0.5146103896103896 0.5113636363636364 0.4862012987012987 0.4261363636363637 0.3409090909090909 0.22321428571428573 0.16396103896103895 0.1444805194805195 0.13717532467532467 0.13636363636363635 0.13392857142857142 0.1314935064935065 0.12743506493506493 0.125 0.1241883116883117 0.12175324675324675 0.12094155844155845 0.125 0.12987012987012986 0.13555194805194806 0.14123376623376624 0.15746753246753248 0.1590909090909091,0.8051948051948052 0.777056277056277 0.6861471861471862 0.5822510822510822 0.4772727272727273 0.3787878787878788 0.3300865800865801 0.3116883116883117 0.30086580086580084 0.2976190476190477 0.2824675324675324 0.2683982683982684 0.24783549783549785 0.2348484848484849 0.2272727272727273 0.20779220779220767 0.1937229437229437 0.17207792207792205 0.16233766233766234 0.15800865800865804 0.15259740259740262 0.13961038961038966 0.1385281385281385,616.6999999999825 636.6999999999825 656.6999999999825 676.6999999999825 696.6999999999824 716.6999999999824 736.6999999999824 756.6999999999824 776.6999999999824 796.6999999999824 816.6999999999824 836.6999999999824 856.6999999999824 876.6999999999824 896.6999999999824 916.6999999999823 936.6999999999823 956.6999999999823 976.6999999999823 996.6999999999823 1016.6999999999823 1036.6999999999823 1056.6999999999823
cb_06,35.0,enc_trial,stim,response,STEM students,1103.0000000059663,enc_trial,1.0,35.0,s_s_12_1,student_stem,fold-a-single,robotic arm,6.0,unique,,single,s_s_12_1.jpg,stem,student-b1,STEM students,Fine Arts students,sub-56,1.0,,1.0,,0.5064935064935064 0.4237012987012987 0.3344155844155844 0.286525974025974 0.2345779220779221 0.2288961038961039 0.2272727272727273 0.22564935064935066 0.22321428571428573 0.2224025974025974 0.2159090909090909 0.2150974025974026 0.2150974025974026 0.2150974025974026 0.2150974025974026 0.21103896103896105 0.2069805194805195 0.20292207792207792 0.1972402597402597 0.1875 0.17451298701298698 0.16314935064935066 0.15665584415584416 0.15503246753246752 0.15422077922077926 0.15422077922077926 0.15422077922077926 0.15422077922077926 0.15503246753246752,0.8452380952380952 0.7034632034632035 0.577922077922078 0.5119047619047619 0.4015151515151515 0.3170995670995671 0.30627705627705626 0.30086580086580084 0.2976190476190477 0.29220779220779225 0.2770562770562771 0.26948051948051943 0.2662337662337663 0.2662337662337663 0.26515151515151514 0.25108225108225113 0.2445887445887445 0.2413419913419913 0.2370129870129869 0.2305194805194805 0.2186147186147186 0.20995670995671 0.20346320346320346 0.2012987012987013 0.19696969696969704 0.1948051948051948 0.1948051948051948 0.1948051948051948 0.1948051948051948,533.2000000000116 553.2000000000116 573.2000000000116 593.2000000000116 613.2000000000116 633.2000000000116 653.2000000000116 673.2000000000116 693.2000000000116 713.2000000000116 733.2000000000116 753.2000000000116 773.2000000000116 793.2000000000116 813.2000000000116 833.2000000000116 853.2000000000116 873.2000000000116 893.2000000000116 913.2000000000116 933.2000000000116 953.2000000000116 973.2000000000116 993.2000000000116 1013.2000000000116 1033.2000000000116 1053.2000000000116 1073.2000000000116 1093.2000000000116
cb_06,36.0,enc_trial,stim,response,STEM students,1348.2000000059488,enc_trial,1.0,36.0,s_sh_03_1,student_shared,fold-a-single,highlighter,6.0,competing,,single,s_sh_03_1.jpg,,student-b1,STEM students,Fine Arts students,sub-56,1.0,,1.0,,0.4748376623376624 0.4602272727272727 0.4472402597402597 0.4488636363636364 0.4496753246753247 0.4496753246753247 0.4496753246753247 0.4496753246753247 0.4496753246753247 0.4496753246753247 0.4496753246753247 0.4496753246753247 0.4496753246753247 0.4496753246753247 0.4496753246753247 0.4496753246753247 0.4496753246753247 0.4496753246753247 0.4496753246753247 0.4496753246753247 0.4496753246753247 0.4496753246753247 0.4496753246753247 0.4496753246753247 0.4496753246753247 0.4748376623376624 0.5292207792207793 0.5657467532467533 0.6477272727272727 0.7702922077922078 0.8409090909090909 0.9196428571428572 0.9253246753246752 0.9253246753246752 0.9188311688311688 0.905844155844156 0.8823051948051948 0.8798701298701299 0.8758116883116883 0.8717532467532467 0.8701298701298701 0.8652597402597403 0.8636363636363636 0.8636363636363636 0.8636363636363636 0.8636363636363636 0.8125 0.7353896103896104 0.6347402597402597 0.4001623376623377 0.24431818181818185 0.10876623376623376 0.08928571428571429 0.08766233766233766 0.09334415584415584 0.1038961038961039 0.10633116883116883 0.10633116883116883 0.10633116883116883 0.10633116883116883 0.10633116883116883 0.10714285714285714 0.11363636363636365 0.11931818181818182 0.12337662337662338,0.8170995670995671 0.8051948051948052 0.7943722943722944 0.7911255411255411 0.7900432900432901 0.7900432900432901 0.7900432900432901 0.7900432900432901 0.7900432900432901 0.7900432900432901 0.7900432900432901 0.7900432900432901 0.7900432900432901 0.7900432900432901 0.7900432900432901 0.7900432900432901 0.7900432900432901 0.7900432900432901 0.7900432900432901 0.7900432900432901 0.7900432900432901 0.7900432900432901 0.7900432900432901 0.7900432900432901 0.7900432900432901 0.7261904761904762 0.6493506493506493 0.604978354978355 0.5162337662337662 0.3863636363636364 0.30086580086580084 0.1948051948051948 0.17099567099567106 0.15367965367965364 0.14177489177489178 0.1341991341991342 0.13311688311688308 0.13311688311688308 0.13203463203463206 0.1298701298701299 0.1298701298701299 0.1298701298701299 0.1298701298701299 0.1298701298701299 0.1298701298701299 0.1298701298701299 0.13203463203463206 0.14610389610389607 0.1612554112554112 0.18614718614718606 0.19047619047619047 0.1601731601731602 0.14935064935064934 0.1428571428571429 0.1385281385281385 0.13203463203463206 0.13203463203463206 0.13203463203463206 0.13203463203463206 0.13203463203463206 0.13203463203463206 0.13203463203463206 0.13311688311688308 0.13528138528138536 0.13636363636363635,0.0 20.0 40.0 60.0 80.0 100.0 120.0 140.0 160.0 180.0 200.0 220.0 240.0 260.0 280.0 300.0 320.0 340.0 360.0 380.0 400.0 420.0 440.0 460.0 480.0 500.0 520.0 540.0 560.0 580.0 600.0 620.0 640.0 660.0 680.0 700.0 720.0 740.0 760.0 780.0 800.0 820.0 840.0 860.0 880.0 900.0 920.0 940.0 960.0 980.0 1000.0 1020.0 1040.0 1060.0 1080.0 1100.0 1120.0 1140.0 1160.0 1180.0 1200.0 1220.0 1240.0 1260.0 1280.0
cb_06,37.0,enc_trial,stim,response,Fine Arts students,1331.3999999999942,enc_trial,1.0,37.0,s_a_04_1,student_art,fold-a-single,easel,6.0,unique,,single,s_a_04_1.jpg,art,student-b1,STEM students,Fine Arts students,sub-56,1.0,,1.0,,0.502435064935065 0.502435064935065 0.502435064935065 0.5 0.4951298701298701 0.4870129870129871 0.45048701298701294 0.3871753246753247 0.3652597402597403 0.3246753246753247 0.2922077922077922 0.2824675324675325 0.2930194805194805 0.3116883116883117 0.3295454545454545 0.3741883116883117 0.5957792207792207 0.7362012987012987 0.8457792207792207 0.9050324675324676 0.9204545454545454 0.9099025974025974 0.8912337662337663 0.8449675324675324 0.8295454545454546 0.7938311688311688 0.7930194805194806 0.7930194805194806 0.7930194805194806 0.7930194805194806 0.7930194805194806 0.7954545454545454 0.7978896103896104 0.8027597402597403 0.8116883116883117 0.8400974025974026 0.8498376623376623 0.8603896103896104 0.8660714285714286,0.8322510822510822 0.814935064935065 0.803030303030303 0.7922077922077921 0.7781385281385281 0.7554112554112554 0.6893939393939394 0.5735930735930737 0.5303030303030303 0.43939393939393945 0.3571428571428571 0.2305194805194805 0.21969696969696967 0.21969696969696967 0.21969696969696967 0.22186147186147187 0.2391774891774892 0.2445887445887445 0.2445887445887445 0.2445887445887445 0.2424242424242425 0.2370129870129869 0.22943722943722944 0.2067099567099568 0.1991341991341992 0.1818181818181817 0.1818181818181817 0.1818181818181817 0.1818181818181817 0.17965367965367962 0.17748917748917747 0.17316017316017318 0.17099567099567106 0.1699134199134199 0.16774891774891776 0.16341991341991347 0.16341991341991347 0.16341991341991347 0.16233766233766234,533.2999999999884 553.2999999999884 573.2999999999884 593.2999999999884 613.2999999999884 633.2999999999884 653.2999999999884 673.2999999999884 693.2999999999884 713.2999999999884 733.2999999999884 753.2999999999884 773.2999999999884 793.2999999999884 813.2999999999884 833.2999999999884 853.2999999999884 873.2999999999884 893.2999999999884 913.2999999999884 933.2999999999884 953.2999999999884 973.2999999999884 993.2999999999884 1013.2999999999884 1033.2999999999884 1053.2999999999884 1073.2999999999884 1093.2999999999884 1113.2999999999884 1133.2999999999886 1153.2999999999886 1173.2999999999886 1193.2999999999886 1213.2999999999886 1233.2999999999886 1253.2999999999886 1273.2999999999886 1293.2999999999886
cb_06,38.0,enc_trial,stim,response,Fine Arts students,1718.900000011927,enc_trial,1.0,38.0,s_sh_10_2,student_shared,fold-b,scissors,6.0,competing,far,paired,s_sh_10_2.jpg,,student-b1,STEM students,Fine Arts students,sub-56,0.0,0.0,0.0,1.0,0.4943181818181818 0.4837662337662338 0.4691558441558442 0.4569805194805195 0.3863636363636364 0.3003246753246753 0.14772727272727273 0.1185064935064935 0.10714285714285714 0.10714285714285714 0.10714285714285714 0.10714285714285714 0.10714285714285714 0.10714285714285714 0.10957792207792208 0.11038961038961036 0.1112012987012987 0.11363636363636365 0.12743506493506493 0.137987012987013 0.1444805194805195 0.15422077922077926 0.15422077922077926 0.15178571428571427 0.14772727272727273 0.1452922077922078 0.1452922077922078 0.1452922077922078 0.1452922077922078 0.1452922077922078 0.1452922077922078 0.1452922077922078 0.1452922077922078 0.1452922077922078 0.1461038961038961 0.1461038961038961 0.17613636363636365 0.25811688311688313 0.3944805194805195 0.5 0.5576298701298701 0.8125 0.8449675324675324 0.8465909090909091 0.8449675324675324 0.8311688311688312 0.8271103896103896 0.8238636363636364 0.8238636363636364 0.8238636363636364 0.8238636363636364 0.8238636363636364 0.8238636363636364 0.8238636363636364 0.8238636363636364 0.8246753246753247 0.8287337662337663 0.8327922077922078 0.8441558441558441 0.8685064935064936 0.872564935064935,0.8181818181818181 0.7835497835497836 0.7175324675324675 0.6764069264069263 0.4978354978354978 0.3398268398268398 0.06277056277056281 0.01623376623376627 0.00649350649350644 0.00649350649350644 0.00649350649350644 0.00649350649350644 0.00649350649350644 0.00649350649350644 0.008658008658008698 0.011904761904761862 0.015151515151515138 0.02164502164502169 0.046536796536796536 0.0670995670995671 0.07792207792207795 0.10606060606060608 0.1158008658008658 0.12012987012987007 0.12121212121212124 0.12121212121212124 0.12121212121212124 0.12121212121212124 0.12121212121212124 0.12121212121212124 0.12121212121212124 0.12121212121212124 0.12121212121212124 0.12121212121212124 0.12121212121212124 0.12121212121212124 0.12878787878787878 0.13311688311688308 0.13528138528138536 0.13961038961038966 0.14177489177489178 0.1255411255411255 0.11038961038961036 0.1071428571428571 0.10606060606060608 0.1028138528138528 0.1028138528138528 0.10173160173160176 0.10173160173160176 0.10173160173160176 0.10173160173160176 0.10173160173160176 0.10173160173160176 0.10173160173160176 0.10173160173160176 0.10173160173160176 0.10389610389610393 0.10606060606060608 0.11471861471861465 0.1341991341991342 0.13744588744588748,483.2000000000117 503.2000000000117 523.2000000000116 543.2000000000116 563.2000000000116 583.2000000000116 603.2000000000116 623.2000000000116 643.2000000000116 663.2000000000116 683.2000000000116 703.2000000000116 723.2000000000116 743.2000000000116 763.2000000000116 783.2000000000116 803.2000000000116 823.2000000000116 843.2000000000116 863.2000000000116 883.2000000000116 903.2000000000116 923.2000000000116 943.2000000000116 963.2000000000116 983.2000000000116 1003.2000000000116 1023.2000000000116 1043.2000000000116 1063.2000000000116 1083.2000000000116 1103.2000000000116 1123.2000000000116 1143.2000000000114 1163.2000000000114 1183.2000000000114 1203.2000000000114 1223.2000000000114 1243.2000000000114 1263.2000000000114 1283.2000000000114 1303.2000000000114 1323.2000000000114 1343.2000000000114 1363.2000000000114 1383.2000000000116 1403.2000000000116 1423.2000000000116 1443.2000000000116 1463.2000000000116 1483.2000000000116 1503.2000000000116 1523.2000000000116 1543.2000000000116 1563.2000000000116 1583.2000000000116 1603.2000000000116 1623.2000000000116 1643.2000000000116 1663.2000000000116 1683.2000000000116
cb_06,39.0,enc_trial,stim,response,Fine Arts students,1134.7000000089465,enc_trial,1.0,39.0,s_sh_18_2,student_shared,fold-c,wall calendar,6.0,competing,close,paired,s_sh_18_2.jpg,,student-b1,STEM students,Fine Arts students,sub-56,1.0,1.0,1.0,1.0,0.5008116883116883 0.502435064935065 0.5016233766233766 0.4472402597402597 0.3790584415584416 0.2670454545454545 0.25162337662337664 0.2508116883116883 0.2508116883116883 0.2508116883116883 0.2711038961038961 0.299512987012987 0.3530844155844156 0.43993506493506496 0.5965909090909091 0.7280844155844156 0.7987012987012987 0.8636363636363636 0.8758116883116883 0.8758116883116883 0.8758116883116883 0.8758116883116883 0.8758116883116883 0.8741883116883117 0.8685064935064936 0.8579545454545454 0.8579545454545454 0.8579545454545454 0.8579545454545454 0.8579545454545454 0.8579545454545454 0.8579545454545454 0.8579545454545454 0.8579545454545454 0.8571428571428571 0.8563311688311688,0.8506493506493507 0.8116883116883117 0.7727272727272727 0.5844155844155844 0.4415584415584416 0.2857142857142857 0.2554112554112554 0.2521645021645021 0.25 0.24783549783549785 0.2445887445887445 0.2445887445887445 0.2424242424242425 0.2316017316017316 0.20779220779220767 0.19047619047619047 0.18831168831168832 0.18831168831168832 0.18831168831168832 0.18831168831168832 0.18831168831168832 0.18831168831168832 0.18831168831168832 0.18831168831168832 0.1872294372294372 0.18614718614718606 0.18614718614718606 0.18614718614718606 0.18614718614718606 0.18614718614718606 0.18614718614718606 0.18614718614718606 0.18614718614718606 0.18506493506493504 0.18073593073593075 0.17748917748917747,366.7000000000117 386.7000000000117 406.7000000000117 426.7000000000117 446.7000000000117 466.7000000000117 486.7000000000117 506.7000000000117 526.7000000000116 546.7000000000116 566.7000000000116 586.7000000000116 606.7000000000116 626.7000000000116 646.7000000000116 666.7000000000116 686.7000000000116 706.7000000000116 726.7000000000116 746.7000000000116 766.7000000000116 786.7000000000116 806.7000000000116 826.7000000000116 846.7000000000116 866.7000000000116 886.7000000000116 906.7000000000116 926.7000000000116 946.7000000000116 966.7000000000116 986.7000000000116 1006.7000000000116 1026.7000000000116 1046.7000000000116 1066.7000000000116
