Current Spreadsheet,Trial Number,Display,Screen,Response Type,Response,Reaction Time,display,block,block_trial,stimulus_id,expected_goal,fold,stimulus_name,c_group,condition,within_block_dist,paired_status,stimulus_path,expected_location,block_split,respStim_1,respStim_2,sub_label,acc,both_enc_acc,assoc_stim1_acc,assoc_stim2_acc,x_pos,y_pos,time_trajectories
cb_06,1.0,enc_trial,stim,response,STEM students,1151.0,enc_trial,1.0,1.0,s_s_14_1,student_stem,fold-e,funnel,6.0,unique,close,paired,s_s_14_1.jpg,stem,student-b1,STEM students,Fine Arts students,sub-40,1.0,1.0,1.0,1.0,0.4826388888888889 0.484375 0.4861111111111111 0.4895833333333333 0.4921875 0.4982638888888889 0.5026041666666666 0.5069444444444444 0.515625 0.5234375 0.5381944444444444 0.546875 0.5572916666666666 0.5625 0.5651041666666666 0.5642361111111112 0.5607638888888888 0.5538194444444444 0.5425347222222222 0.5217013888888888 0.4288194444444444 0.3715277777777778 0.3237847222222222 0.2960069444444444 0.2803819444444444 0.2743055555555556 0.2743055555555556 0.2743055555555556 0.2743055555555556 0.2743055555555556 0.2743055555555556 0.2690972222222222 0.2638888888888889 0.2621527777777778 0.2569444444444444 0.22916666666666666 0.21180555555555555 0.19791666666666666 0.1970486111111111 0.19444444444444445 0.1831597222222222 0.1796875 0.17708333333333334 0.1736111111111111 0.1701388888888889 0.15625,0.8391203703703703 0.8321759259259259 0.806712962962963 0.7777777777777778 0.7476851851851851 0.6944444444444444 0.6655092592592593 0.6388888888888888 0.6006944444444444 0.5752314814814814 0.5277777777777778 0.5034722222222222 0.46875 0.4467592592592593 0.4259259259259259 0.3796296296296297 0.3553240740740741 0.3310185185185185 0.30787037037037035 0.2835648148148148 0.22337962962962965 0.1932870370370371 0.16435185185185186 0.1435185185185185 0.125 0.11342592592592593 0.10763888888888884 0.10416666666666664 0.1030092592592593 0.1030092592592593 0.10185185185185186 0.0902777777777778 0.08333333333333337 0.07638888888888884 0.06944444444444442 0.06134259259259256 0.06134259259259256 0.06134259259259256 0.06134259259259256 0.06134259259259256 0.07291666666666663 0.07870370370370372 0.08912037037037035 0.09953703703703708 0.11111111111111116 0.14120370370370372,216.60000000000585 236.60000000000585 256.6000000000058 276.6000000000058 296.6000000000058 316.6000000000058 336.6000000000058 356.6000000000058 376.6000000000058 396.6000000000058 416.6000000000058 436.6000000000058 456.6000000000058 476.6000000000058 496.6000000000058 516.6000000000058 536.6000000000058 556.6000000000058 576.6000000000057 596.6000000000057 616.6000000000057 636.6000000000057 656.6000000000057 676.6000000000057 696.6000000000058 716.6000000000058 736.6000000000058 756.6000000000058 776.6000000000058 796.6000000000058 816.6000000000058 836.6000000000058 856.6000000000058 876.6000000000058 896.6000000000058 916.6000000000058 936.6000000000058 956.6000000000058 976.6000000000058 996.6000000000058 1016.6000000000058 1036.6000000000058 1056.6000000000058 1076.6000000000058 1096.6000000000058 1116.6000000000058
cb_06,2.0,enc_trial,stim,response,Fine Arts students,1122.5999999523192,enc_trial,1.0,2.0,s_a_15_1,student_art,fold-d,drum kit,6.0,unique,far,paired,s_a_15_1.jpg,art,student-b1,STEM students,Fine Arts students,sub-40,1.0,1.0,1.0,1.0,0.4930555555555556 0.4956597222222222 0.4973958333333333 0.5034722222222222 0.5086805555555556 0.5199652777777778 0.5234375 0.5269097222222222 0.5286458333333334 0.53125 0.5347222222222222 0.5347222222222222 0.5347222222222222 0.5347222222222222 0.5347222222222222 0.5321180555555556 0.5260416666666666 0.5208333333333334 0.5147569444444444 0.5104166666666666 0.5017361111111112 0.4947916666666667 0.4869791666666667 0.4774305555555556 0.4626736111111111 0.4340277777777778 0.4331597222222222 0.4331597222222222 0.4375 0.4592013888888889 0.5052083333333334 0.6319444444444444 0.6987847222222222 0.7916666666666666 0.8350694444444444 0.8836805555555556 0.8958333333333334,0.8541666666666666 0.8449074074074074 0.8333333333333334 0.8125 0.7858796296296297 0.7291666666666667 0.7025462962962963 0.6770833333333333 0.6550925925925926 0.6342592592592593 0.59375 0.5636574074074074 0.5405092592592593 0.5150462962962963 0.4872685185185185 0.4166666666666666 0.3912037037037037 0.3680555555555556 0.34490740740740744 0.32638888888888884 0.28587962962962965 0.2662037037037037 0.25 0.2372685185185185 0.22916666666666666 0.21643518518518529 0.2152777777777778 0.2129629629629629 0.2060185185185185 0.1944444444444444 0.17361111111111116 0.13657407407407407 0.125 0.11111111111111116 0.10532407407407407 0.09837962962962964 0.09606481481481476,183.10000000000585 203.10000000000585 223.10000000000585 243.10000000000585 263.1000000000058 283.1000000000058 303.1000000000058 323.1000000000058 343.1000000000058 363.1000000000058 383.1000000000058 403.1000000000058 423.1000000000058 443.1000000000058 463.1000000000058 483.1000000000058 503.1000000000058 523.1000000000058 543.1000000000058 563.1000000000057 583.1000000000057 603.1000000000057 623.1000000000057 643.1000000000057 663.1000000000057 683.1000000000057 703.1000000000058 723.1000000000058 743.1000000000058 763.1000000000058 783.1000000000058 803.1000000000058 823.1000000000058 843.1000000000058 863.1000000000058 883.1000000000058 903.1000000000058
cb_06,3.0,enc_trial,stim,response,STEM students,1205.6999999284744,enc_trial,1.0,3.0,s_sh_23_1,student_shared,fold-a-single,ballpoint pen,6.0,competing,,single,s_sh_23_1.jpg,,student-b1,STEM students,Fine Arts students,sub-40,1.0,,1.0,,0.5 0.5 0.4991319444444444 0.4973958333333333 0.4956597222222222 0.4930555555555556 0.4913194444444444 0.4895833333333333 0.4869791666666667 0.4861111111111111 0.4861111111111111 0.4861111111111111 0.4861111111111111 0.4861111111111111 0.4809027777777778 0.4409722222222222 0.4079861111111111 0.3732638888888889 0.3368055555555556 0.3098958333333333 0.2743055555555556 0.2664930555555556 0.2612847222222222 0.2560763888888889 0.2534722222222222 0.24305555555555555 0.2387152777777778 0.2326388888888889 0.2239583333333333 0.21354166666666666 0.2005208333333333 0.19618055555555555 0.1909722222222222 0.1875 0.1814236111111111 0.1597222222222222 0.1597222222222222,0.8472222222222222 0.8391203703703703 0.8287037037037037 0.8101851851851851 0.787037037037037 0.7418981481481481 0.7210648148148149 0.6967592592592593 0.6712962962962963 0.6435185185185186 0.5821759259259259 0.5509259259259259 0.5231481481481481 0.4953703703703704 0.4641203703703704 0.3842592592592593 0.3460648148148148 0.3090277777777778 0.2731481481481481 0.24537037037037035 0.1967592592592593 0.1805555555555556 0.16666666666666666 0.15740740740740744 0.1527777777777778 0.14120370370370372 0.1377314814814815 0.1342592592592593 0.12962962962962965 0.12384259259259255 0.11805555555555558 0.11689814814814815 0.11689814814814815 0.11689814814814815 0.11689814814814815 0.11921296296296292 0.12037037037037035,216.8999999999941 236.8999999999941 256.89999999999407 276.89999999999407 296.8999999999941 316.8999999999941 336.8999999999941 356.8999999999941 376.8999999999941 396.8999999999941 416.8999999999941 436.8999999999941 456.8999999999941 476.8999999999941 496.8999999999941 516.8999999999942 536.8999999999942 556.8999999999942 576.8999999999943 596.8999999999943 616.8999999999943 636.8999999999943 656.8999999999943 676.8999999999943 696.8999999999942 716.8999999999942 736.8999999999942 756.8999999999942 776.8999999999942 796.8999999999942 816.8999999999942 836.8999999999942 856.8999999999942 876.8999999999942 896.8999999999942 916.8999999999942 936.8999999999942
cb_06,4.0,enc_trial,stim,response,STEM students,1224.4000000238448,enc_trial,1.0,4.0,s_s_20_1,student_stem,fold-d,dna model,6.0,unique,far,paired,s_s_20_1.jpg,stem,student-b1,STEM students,Fine Arts students,sub-40,1.0,1.0,1.0,1.0,0.5008680555555556 0.5052083333333334 0.5086805555555556 0.5147569444444444 0.5190972222222222 0.5295138888888888 0.5329861111111112 0.5399305555555556 0.5460069444444444 0.5520833333333334 0.5590277777777778 0.5607638888888888 0.5598958333333334 0.5572916666666666 0.5538194444444444 0.5425347222222222 0.5338541666666666 0.5277777777777778 0.5217013888888888 0.5138888888888888 0.4774305555555556 0.4487847222222222 0.4149305555555556 0.3871527777777778 0.3671875 0.3385416666666667 0.3272569444444444 0.3194444444444444 0.3177083333333333 0.3159722222222222 0.3064236111111111 0.3020833333333333 0.2951388888888889 0.2890625 0.2855902777777778 0.2751736111111111 0.2690972222222222 0.2604166666666667 0.2387152777777778 0.2230902777777778 0.1935763888888889 0.17881944444444445 0.15711805555555555 0.1449652777777778 0.1328125 0.1232638888888889 0.1189236111111111 0.11805555555555555,0.8564814814814815 0.849537037037037 0.84375 0.8356481481481481 0.8287037037037037 0.8090277777777778 0.8009259259259259 0.7847222222222222 0.7650462962962963 0.7407407407407407 0.6909722222222222 0.6666666666666667 0.6423611111111112 0.6180555555555556 0.5949074074074074 0.5439814814814814 0.505787037037037 0.4814814814814815 0.4641203703703704 0.4479166666666666 0.4074074074074073 0.3900462962962963 0.375 0.3599537037037037 0.3472222222222222 0.3287037037037037 0.32060185185185186 0.31712962962962965 0.3148148148148148 0.31365740740740744 0.3043981481481481 0.30208333333333337 0.2962962962962963 0.29166666666666663 0.2905092592592593 0.2847222222222222 0.28125 0.2754629629629629 0.26388888888888884 0.2557870370370371 0.238425925925926 0.2303240740740741 0.2106481481481481 0.1967592592592593 0.18518518518518529 0.17361111111111116 0.16782407407407407 0.16319444444444442,216.90000000000873 236.90000000000873 256.90000000000873 276.90000000000873 296.90000000000873 316.90000000000873 336.90000000000873 356.9000000000088 376.9000000000088 396.9000000000088 416.9000000000088 436.9000000000088 456.9000000000088 476.9000000000088 496.9000000000088 516.9000000000087 536.9000000000087 556.9000000000087 576.9000000000087 596.9000000000087 616.9000000000087 636.9000000000087 656.9000000000087 676.9000000000087 696.9000000000087 716.9000000000087 736.9000000000087 756.9000000000087 776.9000000000087 796.9000000000087 816.9000000000087 836.9000000000087 856.9000000000087 876.9000000000087 896.9000000000087 916.9000000000087 936.9000000000087 956.9000000000087 976.9000000000087 996.9000000000087 1016.9000000000087 1036.9000000000087 1056.9000000000087 1076.9000000000087 1096.9000000000087 1116.9000000000087 1136.9000000000087 1156.9000000000087
cb_06,5.0,enc_trial,stim,response,STEM students,1199.2999999999886,enc_trial,1.0,5.0,s_sh_24_1,student_shared,fold-b,desk organizer,6.0,competing,far,paired,s_sh_24_1.jpg,,student-b1,STEM students,Fine Arts students,sub-40,1.0,1.0,1.0,0.0,0.5 0.5 0.5043402777777778 0.5104166666666666 0.5138888888888888 0.5208333333333334 0.5225694444444444 0.5243055555555556 0.5243055555555556 0.5243055555555556 0.5243055555555556 0.5243055555555556 0.5243055555555556 0.5243055555555556 0.5243055555555556 0.5243055555555556 0.5243055555555556 0.5243055555555556 0.5243055555555556 0.5243055555555556 0.5234375 0.5234375 0.5234375 0.5234375 0.5234375 0.5199652777777778 0.5173611111111112 0.5130208333333334 0.5043402777777778 0.4930555555555556 0.4453125 0.4088541666666667 0.3619791666666667 0.3229166666666667 0.2916666666666667 0.2395833333333333 0.22569444444444445 0.2152777777777778 0.2083333333333333 0.2065972222222222 0.203125 0.2013888888888889 0.2013888888888889 0.2013888888888889 0.1996527777777778 0.18836805555555555 0.18229166666666666 0.1779513888888889 0.1753472222222222 0.171875 0.16493055555555555 0.1597222222222222 0.14583333333333334,0.8472222222222222 0.837962962962963 0.818287037037037 0.7939814814814815 0.7685185185185185 0.7141203703703703 0.6886574074074074 0.6655092592592593 0.6481481481481481 0.630787037037037 0.6041666666666667 0.5925925925925926 0.587962962962963 0.5856481481481481 0.5856481481481481 0.5810185185185186 0.5775462962962963 0.5740740740740741 0.5694444444444444 0.5601851851851851 0.5462962962962963 0.5405092592592593 0.5289351851851851 0.5150462962962963 0.5 0.4664351851851852 0.4467592592592593 0.42708333333333337 0.40509259259259256 0.3842592592592593 0.3310185185185185 0.30092592592592593 0.26388888888888884 0.2361111111111112 0.2129629629629629 0.16666666666666666 0.15162037037037035 0.1377314814814815 0.1307870370370371 0.12962962962962965 0.125 0.12268518518518524 0.12268518518518524 0.1215277777777778 0.11921296296296292 0.10995370370370372 0.10763888888888884 0.10648148148148152 0.10648148148148152 0.10532407407407407 0.10532407407407407 0.10532407407407407 0.10532407407407407,133.5 153.5 173.5 193.5 213.5 233.5 253.5 273.5 293.5 313.5 333.5 353.5 373.5 393.5 413.5 433.5 453.5 473.5 493.5 513.5 533.5 553.5 573.5 593.5 613.5 633.5 653.5 673.5 693.5 713.5 733.5 753.5 773.5 793.5 813.5 833.5 853.5 873.5 893.5 913.5 933.5 953.5 973.5 993.5 1013.5 1033.5 1053.5 1073.5 1093.5 1113.5 1133.5 1153.5 1173.5
cb_06,6.0,enc_trial,stim,response,STEM students,2211.6999999523105,enc_trial,1.0,6.0,s_s_14_2,student_stem,fold-e,funnel,6.0,unique,close,paired,s_s_14_2.jpg,stem,student-b1,STEM students,Fine Arts students,sub-40,1.0,1.0,1.0,1.0,0.4939236111111111 0.4939236111111111 0.4939236111111111 0.4939236111111111 0.4939236111111111 0.4939236111111111 0.4939236111111111 0.4939236111111111 0.4930555555555556 0.4895833333333333 0.4809027777777778 0.4618055555555556 0.4522569444444444 0.4409722222222222 0.4296875 0.4097222222222222 0.4027777777777778 0.4019097222222222 0.4019097222222222 0.4019097222222222 0.4071180555555556 0.4097222222222222 0.4097222222222222 0.4097222222222222 0.4097222222222222 0.40625 0.3862847222222222 0.3654513888888889 0.3428819444444444 0.3220486111111111 0.2873263888888889 0.2743055555555556 0.2621527777777778 0.2517361111111111 0.2404513888888889 0.2326388888888889 0.2161458333333333 0.2074652777777778 0.1953125 0.1840277777777778 0.1814236111111111 0.1814236111111111 0.1814236111111111 0.1918402777777778 0.2152777777777778 0.359375 0.4435763888888889 0.5173611111111112 0.5833333333333334 0.6336805555555556 0.6684027777777778 0.7013888888888888 0.7048611111111112 0.7065972222222222 0.7074652777777778 0.7092013888888888 0.7152777777777778 0.7222222222222222 0.7256944444444444 0.7413194444444444 0.7699652777777778 0.7708333333333334 0.7708333333333334 0.7786458333333334 0.7821180555555556 0.7960069444444444 0.8038194444444444 0.8090277777777778 0.8107638888888888 0.8125 0.8125 0.8125 0.8125 0.8125 0.8125 0.8125 0.8125 0.8125 0.8125 0.8125 0.8125 0.8125 0.8125 0.8125 0.8125 0.8125 0.8125 0.8125 0.8125 0.8072916666666666 0.7638888888888888 0.5815972222222222 0.4965277777777778 0.4305555555555556 0.3802083333333333 0.3428819444444444 0.3298611111111111 0.3298611111111111 0.3298611111111111 0.3272569444444444 0.3211805555555556 0.3038194444444444 0.2890625 0.2647569444444444 0.24305555555555555 0.2144097222222222 0.16319444444444445,0.8356481481481481 0.8356481481481481 0.8356481481481481 0.8333333333333334 0.8275462962962963 0.8101851851851851 0.7905092592592593 0.7662037037037037 0.7361111111111112 0.7002314814814814 0.6527777777777778 0.556712962962963 0.5092592592592593 0.4618055555555556 0.4166666666666666 0.3460648148148148 0.3125 0.29513888888888884 0.28240740740740744 0.27083333333333337 0.2592592592592593 0.2569444444444444 0.2569444444444444 0.2569444444444444 0.2557870370370371 0.25462962962962965 0.24884259259259256 0.24537037037037035 0.24537037037037035 0.24537037037037035 0.24537037037037035 0.24537037037037035 0.2430555555555556 0.2407407407407407 0.2395833333333333 0.2372685185185185 0.22685185185185186 0.21990740740740744 0.2083333333333333 0.1944444444444444 0.1898148148148148 0.1875 0.1805555555555556 0.17013888888888884 0.15740740740740744 0.11342592592592593 0.0972222222222222 0.09143518518518524 0.0844907407407407 0.07870370370370372 0.07638888888888884 0.0717592592592593 0.07060185185185186 0.06944444444444442 0.06944444444444442 0.06944444444444442 0.06828703703703709 0.06712962962962965 0.06712962962962965 0.06712962962962965 0.06712962962962965 0.06712962962962965 0.06712962962962965 0.06712962962962965 0.06712962962962965 0.07407407407407407 0.08101851851851849 0.08564814814814814 0.08912037037037035 0.0902777777777778 0.0902777777777778 0.0902777777777778 0.0902777777777778 0.0902777777777778 0.0902777777777778 0.0902777777777778 0.0902777777777778 0.0902777777777778 0.0902777777777778 0.0902777777777778 0.0902777777777778 0.0902777777777778 0.0902777777777778 0.0902777777777778 0.0902777777777778 0.0902777777777778 0.0902777777777778 0.0902777777777778 0.0902777777777778 0.09259259259259256 0.10416666666666664 0.14814814814814814 0.1620370370370371 0.1689814814814815 0.1689814814814815 0.1655092592592593 0.16435185185185186 0.16435185185185186 0.16435185185185186 0.16435185185185186 0.16319444444444442 0.16319444444444442 0.16319444444444442 0.16319444444444442 0.16319444444444442 0.16319444444444442 0.16319444444444442,49.69999999998254 69.69999999998254 89.69999999998255 109.69999999998255 129.69999999998254 149.69999999998254 169.69999999998254 189.69999999998254 209.69999999998254 229.69999999998254 249.69999999998254 269.69999999998254 289.6999999999825 309.6999999999825 329.6999999999825 349.69999999998254 369.69999999998254 389.69999999998254 409.69999999998254 429.69999999998254 449.69999999998254 469.69999999998254 489.69999999998254 509.69999999998254 529.6999999999825 549.6999999999825 569.6999999999825 589.6999999999825 609.6999999999825 629.6999999999825 649.6999999999825 669.6999999999825 689.6999999999824 709.6999999999824 729.6999999999824 749.6999999999824 769.6999999999824 789.6999999999824 809.6999999999824 829.6999999999824 849.6999999999824 869.6999999999824 889.6999999999824 909.6999999999823 929.6999999999823 949.6999999999823 969.6999999999823 989.6999999999823 1009.6999999999823 1029.6999999999823 1049.6999999999823 1069.6999999999823 1089.6999999999823 1109.6999999999823 1129.6999999999825 1149.6999999999825 1169.6999999999825 1189.6999999999825 1209.6999999999825 1229.6999999999825 1249.6999999999825 1269.6999999999825 1289.6999999999825 1309.6999999999825 1329.6999999999825 1349.6999999999825 1369.6999999999825 1389.6999999999825 1409.6999999999825 1429.6999999999825 1449.6999999999825 1469.6999999999825 1489.6999999999825 1509.6999999999825 1529.6999999999825 1549.6999999999825 1569.6999999999825 1589.6999999999825 1609.6999999999825 1629.6999999999825 1649.6999999999825 1669.6999999999825 1689.6999999999825 1709.6999999999825 1729.6999999999825 1749.6999999999825 1769.6999999999825 1789.6999999999825 1809.6999999999825 1829.6999999999825 1849.6999999999825 1869.6999999999825 1889.6999999999825 1909.6999999999825 1929.6999999999825 1949.6999999999825 1969.6999999999825 1989.6999999999825 2009.6999999999825 2029.6999999999825 2049.6999999999825 2069.6999999999825 2089.6999999999825 2109.6999999999825 2129.6999999999825 2149.6999999999825 2169.6999999999825
cb_06,7.0,enc_trial,stim,response,STEM students,1283.2999999523165,enc_trial,1.0,7.0,s_sh_09_1,student_shared,fold-c,paper clips,6.0,competing,close,paired,s_sh_09_1.jpg,,student-b1,STEM students,Fine Arts students,sub-40,0.0,0.0,1.0,1.0,0.5 0.5 0.5 0.5 0.4982638888888889 0.4965277777777778 0.4904513888888889 0.4869791666666667 0.4852430555555556 0.4826388888888889 0.4774305555555556 0.4765625 0.4765625 0.4765625 0.4765625 0.4765625 0.4765625 0.4765625 0.4765625 0.4765625 0.4765625 0.4756944444444444 0.4756944444444444 0.4739583333333333 0.4756944444444444 0.4973958333333333 0.5173611111111112 0.5347222222222222 0.5416666666666666 0.5416666666666666 0.5338541666666666 0.5208333333333334 0.4965277777777778 0.4618055555555556 0.4210069444444444 0.3333333333333333 0.2881944444444444 0.24479166666666666 0.19791666666666666 0.17708333333333334 0.1467013888888889 0.13541666666666666 0.12413194444444445 0.11805555555555555 0.11458333333333333 0.10850694444444443 0.1032986111111111 0.09809027777777778,0.8622685185185185 0.8518518518518519 0.8391203703703703 0.8252314814814815 0.8055555555555556 0.7800925925925926 0.7210648148148149 0.6898148148148149 0.6608796296296297 0.6331018518518519 0.587962962962963 0.5717592592592593 0.5601851851851851 0.5590277777777778 0.5590277777777778 0.5590277777777778 0.5590277777777778 0.5590277777777778 0.5590277777777778 0.5590277777777778 0.5590277777777778 0.5474537037037037 0.5335648148148149 0.5138888888888888 0.5 0.4675925925925926 0.4537037037037037 0.4398148148148148 0.4351851851851852 0.4305555555555556 0.4120370370370371 0.4027777777777778 0.3923611111111112 0.3784722222222222 0.3611111111111112 0.2974537037037037 0.25462962962962965 0.21759259259259256 0.1782407407407407 0.1620370370370371 0.1469907407407407 0.1435185185185185 0.14120370370370372 0.14004629629629628 0.13888888888888884 0.1377314814814815 0.13310185185185186 0.12962962962962965,99.79999999998836 119.79999999998836 139.79999999998836 159.7999999999884 179.79999999998836 199.79999999998842 219.79999999998842 239.79999999998842 259.7999999999884 279.7999999999884 299.79999999998836 319.79999999998836 339.79999999998836 359.7999999999884 379.7999999999884 399.7999999999884 419.7999999999884 439.7999999999884 459.7999999999884 479.7999999999884 499.7999999999884 519.7999999999884 539.7999999999884 559.7999999999884 579.7999999999884 599.7999999999884 619.7999999999884 639.7999999999884 659.7999999999884 679.7999999999884 699.7999999999884 719.7999999999884 739.7999999999884 759.7999999999884 779.7999999999884 799.7999999999884 819.7999999999884 839.7999999999884 859.7999999999884 879.7999999999884 899.7999999999884 919.7999999999884 939.7999999999884 959.7999999999884 979.7999999999884 999.7999999999884 1019.7999999999884 1039.7999999999884
cb_06,8.0,enc_trial,stim,response,STEM students,936.6999999284744,enc_trial,1.0,8.0,s_a_09_2,student_art,fold-e,picture frame,6.0,unique,close,paired,s_a_09_2.jpg,art,student-b1,STEM students,Fine Arts students,sub-40,0.0,0.0,0.0,0.0,0.4895833333333333 0.4895833333333333 0.4869791666666667 0.4826388888888889 0.4739583333333333 0.4618055555555556 0.4236111111111111 0.4079861111111111 0.3923611111111111 0.3784722222222222 0.3645833333333333 0.3463541666666667 0.3368055555555556 0.3272569444444444 0.3185763888888889 0.3090277777777778 0.3003472222222222 0.2994791666666667 0.2960069444444444 0.2907986111111111 0.2847222222222222 0.2725694444444444 0.2621527777777778 0.24913194444444445 0.23350694444444445 0.2152777777777778 0.18055555555555555 0.16666666666666666 0.16319444444444445 0.1623263888888889 0.1623263888888889 0.1623263888888889 0.1623263888888889 0.1623263888888889 0.1623263888888889 0.1623263888888889 0.1623263888888889 0.1605902777777778,0.84375 0.8391203703703703 0.8171296296296297 0.7905092592592593 0.7546296296296297 0.7060185185185186 0.5752314814814814 0.5231481481481481 0.4768518518518519 0.4351851851851852 0.3935185185185185 0.3275462962962963 0.3055555555555556 0.2835648148148148 0.2650462962962963 0.25115740740740744 0.2349537037037037 0.2314814814814815 0.2245370370370371 0.21759259259259256 0.2106481481481481 0.2002314814814815 0.1967592592592593 0.1944444444444444 0.1909722222222222 0.1875 0.1817129629629629 0.1805555555555556 0.1805555555555556 0.1805555555555556 0.1805555555555556 0.1805555555555556 0.1805555555555556 0.1805555555555556 0.1805555555555556 0.1805555555555556 0.1805555555555556 0.1782407407407407,149.60000000000582 169.60000000000582 189.60000000000585 209.60000000000585 229.60000000000585 249.60000000000585 269.6000000000058 289.6000000000058 309.6000000000058 329.6000000000058 349.6000000000058 369.6000000000058 389.6000000000058 409.6000000000058 429.6000000000058 449.6000000000058 469.6000000000058 489.6000000000058 509.6000000000058 529.6000000000058 549.6000000000058 569.6000000000057 589.6000000000057 609.6000000000057 629.6000000000057 649.6000000000057 669.6000000000057 689.6000000000058 709.6000000000058 729.6000000000058 749.6000000000058 769.6000000000058 789.6000000000058 809.6000000000058 829.6000000000058 849.6000000000058 869.6000000000058 889.6000000000058
cb_06,9.0,enc_trial,stim,response,STEM students,924.9999999284627,enc_trial,1.0,9.0,s_s_11_1,student_stem,fold-d,scientific scale,6.0,unique,far,paired,s_s_11_1.jpg,stem,student-b1,STEM students,Fine Arts students,sub-40,1.0,1.0,1.0,1.0,0.5069444444444444 0.5086805555555556 0.5112847222222222 0.5164930555555556 0.5208333333333334 0.5321180555555556 0.5364583333333334 0.5390625 0.5390625 0.5390625 0.5347222222222222 0.5269097222222222 0.5104166666666666 0.4965277777777778 0.4826388888888889 0.4557291666666667 0.4392361111111111 0.4305555555555556 0.4244791666666667 0.4236111111111111 0.4184027777777778 0.4140625 0.4114583333333333 0.40625 0.4001736111111111 0.3888888888888889 0.3802083333333333 0.3654513888888889 0.3463541666666667 0.3246527777777778 0.2673611111111111 0.2387152777777778 0.1987847222222222 0.1831597222222222 0.17100694444444445 0.16319444444444445 0.16319444444444445 0.1623263888888889 0.1623263888888889 0.1623263888888889 0.15625 0.14930555555555555 0.1440972222222222 0.140625 0.1388888888888889,0.8310185185185185 0.8240740740740741 0.8101851851851851 0.7916666666666666 0.7685185185185185 0.7164351851851851 0.6898148148148149 0.6631944444444444 0.6388888888888888 0.6134259259259259 0.568287037037037 0.5428240740740741 0.5046296296296297 0.4780092592592593 0.4525462962962963 0.40625 0.3773148148148148 0.36458333333333337 0.3564814814814815 0.3530092592592593 0.34490740740740744 0.3379629629629629 0.3344907407407407 0.32638888888888884 0.3194444444444444 0.3090277777777778 0.2997685185185185 0.2881944444444444 0.27662037037037035 0.2615740740740741 0.22685185185185186 0.2060185185185185 0.17592592592592593 0.1655092592592593 0.15625 0.14930555555555558 0.14814814814814814 0.14814814814814814 0.14814814814814814 0.14814814814814814 0.14814814814814814 0.14814814814814814 0.14814814814814814 0.14814814814814814 0.14814814814814814,17.299999999988362 37.29999999998836 57.29999999998836 77.29999999998834 97.29999999998834 117.29999999998834 137.2999999999883 157.2999999999883 177.29999999998833 197.29999999998836 217.29999999998836 237.29999999998836 257.2999999999883 277.2999999999883 297.2999999999883 317.2999999999883 337.2999999999883 357.2999999999883 377.2999999999883 397.2999999999883 417.2999999999883 437.2999999999883 457.2999999999883 477.2999999999883 497.2999999999882 517.2999999999881 537.2999999999881 557.2999999999881 577.2999999999882 597.2999999999882 617.2999999999882 637.2999999999882 657.2999999999882 677.2999999999882 697.2999999999882 717.2999999999882 737.2999999999882 757.2999999999882 777.2999999999882 797.2999999999882 817.2999999999882 837.2999999999882 857.2999999999882 877.2999999999882 897.2999999999882
cb_06,10.0,enc_trial,stim,response,STEM students,959.5999999284686,enc_trial,1.0,10.0,s_sh_04_1,student_shared,fold-c,laptop stand,6.0,competing,close,paired,s_sh_04_1.jpg,,student-b1,STEM students,Fine Arts students,sub-40,1.0,1.0,1.0,0.0,0.4939236111111111 0.4965277777777778 0.5008680555555556 0.5060763888888888 0.5121527777777778 0.5243055555555556 0.5303819444444444 0.5321180555555556 0.5321180555555556 0.5277777777777778 0.5182291666666666 0.4913194444444444 0.4756944444444444 0.4583333333333333 0.4383680555555556 0.3940972222222222 0.3697916666666667 0.3402777777777778 0.3324652777777778 0.3315972222222222 0.3315972222222222 0.3315972222222222 0.3315972222222222 0.3315972222222222 0.3315972222222222 0.3315972222222222 0.3229166666666667 0.3142361111111111 0.3090277777777778 0.3003472222222222 0.2717013888888889 0.2569444444444444 0.2439236111111111 0.2317708333333333 0.21875 0.203125 0.1953125 0.1848958333333333 0.17708333333333334 0.1701388888888889 0.14930555555555555 0.13194444444444445 0.12152777777777778 0.11979166666666667,0.8287037037037037 0.8240740740740741 0.8090277777777778 0.787037037037037 0.7615740740740741 0.6898148148148149 0.6481481481481481 0.6018518518518519 0.5509259259259259 0.5011574074074074 0.4571759259259259 0.3796296296296297 0.3553240740740741 0.3344907407407407 0.3159722222222222 0.2777777777777778 0.26041666666666663 0.2407407407407407 0.2361111111111112 0.2349537037037037 0.2349537037037037 0.2349537037037037 0.2349537037037037 0.2349537037037037 0.2349537037037037 0.2349537037037037 0.2256944444444444 0.21990740740740744 0.21643518518518529 0.2106481481481481 0.19212962962962965 0.1840277777777778 0.17592592592592593 0.16782407407407407 0.1620370370370371 0.1527777777777778 0.14930555555555558 0.14583333333333334 0.14236111111111116 0.1377314814814815 0.12962962962962965 0.12268518518518524 0.11921296296296292 0.11805555555555558,49.69999999998254 69.69999999998254 89.69999999998255 109.69999999998255 129.69999999998254 149.69999999998254 169.69999999998254 189.69999999998254 209.69999999998254 229.69999999998254 249.69999999998254 269.69999999998254 289.6999999999825 309.6999999999825 329.6999999999825 349.69999999998254 369.69999999998254 389.69999999998254 409.69999999998254 429.69999999998254 449.69999999998254 469.69999999998254 489.69999999998254 509.69999999998254 529.6999999999825 549.6999999999825 569.6999999999825 589.6999999999825 609.6999999999825 629.6999999999825 649.6999999999825 669.6999999999825 689.6999999999824 709.6999999999824 729.6999999999824 749.6999999999824 769.6999999999824 789.6999999999824 809.6999999999824 829.6999999999824 849.6999999999824 869.6999999999824 889.6999999999824 909.6999999999823
cb_06,11.0,enc_trial,stim,response,STEM students,1161.7000000238475,enc_trial,1.0,11.0,s_sh_09_2,student_shared,fold-c,paper clips,6.0,competing,close,paired,s_sh_09_2.jpg,,student-b1,STEM students,Fine Arts students,sub-40,0.0,0.0,1.0,1.0,0.5173611111111112 0.5173611111111112 0.5173611111111112 0.5173611111111112 0.5173611111111112 0.5173611111111112 0.5173611111111112 0.5173611111111112 0.5173611111111112 0.5147569444444444 0.5095486111111112 0.5086805555555556 0.5078125 0.5069444444444444 0.5043402777777778 0.4991319444444444 0.4965277777777778 0.4930555555555556 0.4887152777777778 0.4826388888888889 0.4661458333333333 0.453125 0.4392361111111111 0.4236111111111111 0.40625 0.3680555555555556 0.3480902777777778 0.3298611111111111 0.3055555555555556 0.2916666666666667 0.2690972222222222 0.2560763888888889 0.2465277777777778 0.2387152777777778 0.22916666666666666 0.2109375 0.2083333333333333 0.20399305555555555 0.1996527777777778 0.1987847222222222 0.1935763888888889 0.1909722222222222 0.1857638888888889 0.18055555555555555 0.17100694444444445 0.15104166666666666 0.1501736111111111,0.8078703703703703 0.8020833333333334 0.7951388888888888 0.7777777777777778 0.7534722222222222 0.693287037037037 0.6655092592592593 0.6388888888888888 0.6064814814814814 0.587962962962963 0.5509259259259259 0.5277777777777778 0.5219907407407407 0.5 0.4895833333333334 0.4675925925925926 0.4560185185185185 0.4479166666666666 0.43634259259259256 0.4224537037037037 0.3877314814814815 0.36689814814814814 0.34837962962962965 0.3287037037037037 0.3067129629629629 0.2662037037037037 0.2476851851851853 0.2314814814814815 0.2118055555555556 0.20138888888888884 0.1909722222222222 0.1875 0.18518518518518529 0.18518518518518529 0.18287037037037035 0.1805555555555556 0.1805555555555556 0.1805555555555556 0.1805555555555556 0.1805555555555556 0.1782407407407407 0.17592592592592593 0.17361111111111116 0.17129629629629628 0.16666666666666666 0.15625 0.15509259259259256,83.10000000000579 103.10000000000579 123.10000000000579 143.10000000000582 163.10000000000582 183.1000000000058 203.1000000000058 223.1000000000058 243.1000000000058 263.1000000000058 283.1000000000058 303.1000000000058 323.1000000000058 343.1000000000058 363.1000000000058 383.1000000000058 403.1000000000058 423.1000000000058 443.1000000000058 463.1000000000058 483.1000000000058 503.1000000000058 523.1000000000058 543.1000000000058 563.1000000000057 583.1000000000057 603.1000000000057 623.1000000000057 643.1000000000057 663.1000000000057 683.1000000000057 703.1000000000058 723.1000000000058 743.1000000000058 763.1000000000058 783.1000000000058 803.1000000000058 823.1000000000058 843.1000000000058 863.1000000000058 883.1000000000058 903.1000000000058 923.1000000000058 943.1000000000058 963.1000000000058 983.1000000000058 1003.1000000000058
cb_06,12.0,enc_trial,stim,response,Fine Arts students,997.2999999761523,enc_trial,1.0,12.0,s_a_09_1,student_art,fold-e,picture frame,6.0,unique,close,paired,s_a_09_1.jpg,art,student-b1,STEM students,Fine Arts students,sub-40,0.0,0.0,0.0,0.0,0.4991319444444444 0.4991319444444444 0.5026041666666666 0.5078125 0.5173611111111112 0.5407986111111112 0.5451388888888888 0.5451388888888888 0.5425347222222222 0.5347222222222222 0.5130208333333334 0.4991319444444444 0.4878472222222222 0.4782986111111111 0.4722222222222222 0.453125 0.4383680555555556 0.4201388888888889 0.3984375 0.3723958333333333 0.3298611111111111 0.3072916666666667 0.2960069444444444 0.2873263888888889 0.2864583333333333 0.2855902777777778 0.2986111111111111 0.3090277777777778 0.3663194444444444 0.4131944444444444 0.5381944444444444 0.6137152777777778 0.6935763888888888 0.7638888888888888 0.8229166666666666 0.8871527777777778 0.8958333333333334 0.8984375 0.8984375 0.8984375 0.8984375 0.8984375 0.9010416666666666 0.9071180555555556 0.9131944444444444,0.8425925925925926 0.8425925925925926 0.8287037037037037 0.8055555555555556 0.7615740740740741 0.5972222222222222 0.5324074074074074 0.4780092592592593 0.4317129629629629 0.3912037037037037 0.3298611111111112 0.3055555555555556 0.2881944444444444 0.2754629629629629 0.2673611111111112 0.2476851851851853 0.2361111111111112 0.2222222222222222 0.2083333333333333 0.1944444444444444 0.16666666666666666 0.14930555555555558 0.1435185185185185 0.13657407407407407 0.13541666666666666 0.13310185185185186 0.12731481481481474 0.125 0.1157407407407407 0.10763888888888884 0.10069444444444442 0.10069444444444442 0.10069444444444442 0.10069444444444442 0.10069444444444442 0.10069444444444442 0.10069444444444442 0.10069444444444442 0.10069444444444442 0.10069444444444442 0.10069444444444442 0.10069444444444442 0.10069444444444442 0.10069444444444442 0.10185185185185186,50.10000000000582 70.10000000000582 90.10000000000582 110.10000000000582 130.10000000000582 150.10000000000582 170.10000000000582 190.10000000000585 210.10000000000585 230.10000000000585 250.10000000000585 270.1000000000058 290.1000000000058 310.1000000000058 330.1000000000058 350.1000000000058 370.1000000000058 390.1000000000058 410.1000000000058 430.1000000000058 450.1000000000058 470.1000000000058 490.1000000000058 510.1000000000058 530.1000000000058 550.1000000000058 570.1000000000057 590.1000000000057 610.1000000000057 630.1000000000057 650.1000000000057 670.1000000000057 690.1000000000058 710.1000000000058 730.1000000000058 750.1000000000058 770.1000000000058 790.1000000000058 810.1000000000058 830.1000000000058 850.1000000000058 870.1000000000058 890.1000000000058 910.1000000000058 930.1000000000058
cb_06,13.0,enc_trial,stim,response,STEM students,853.2999999761522,enc_trial,1.0,13.0,s_s_04_1,student_stem,fold-a-single,bunsen burner,6.0,unique,,single,s_s_04_1.jpg,stem,student-b1,STEM students,Fine Arts students,sub-40,1.0,,1.0,,0.5017361111111112 0.5026041666666666 0.5043402777777778 0.5069444444444444 0.5112847222222222 0.5173611111111112 0.5190972222222222 0.5190972222222222 0.5182291666666666 0.5147569444444444 0.5052083333333334 0.5 0.4965277777777778 0.4930555555555556 0.4887152777777778 0.4696180555555556 0.4548611111111111 0.4357638888888889 0.4131944444444444 0.390625 0.3550347222222222 0.3411458333333333 0.3289930555555556 0.3185763888888889 0.3055555555555556 0.2803819444444444 0.2664930555555556 0.2465277777777778 0.2309027777777778 0.21788194444444445 0.1935763888888889 0.1875 0.18663194444444445 0.1857638888888889 0.1857638888888889 0.1857638888888889 0.1857638888888889 0.1840277777777778 0.17881944444444445 0.17274305555555555 0.1701388888888889 0.16666666666666666 0.16666666666666666,0.8287037037037037 0.8206018518518519 0.8055555555555556 0.7789351851851851 0.7453703703703703 0.6631944444444444 0.6168981481481481 0.5532407407407407 0.5138888888888888 0.4826388888888888 0.4386574074074073 0.4201388888888888 0.4108796296296297 0.4027777777777778 0.39814814814814814 0.3796296296296297 0.3726851851851852 0.36458333333333337 0.3530092592592593 0.34490740740740744 0.3252314814814815 0.31712962962962965 0.3090277777777778 0.30092592592592593 0.29166666666666663 0.26388888888888884 0.25 0.22916666666666666 0.21990740740740744 0.2094907407407407 0.19560185185185186 0.1909722222222222 0.1898148148148148 0.1898148148148148 0.1898148148148148 0.1898148148148148 0.1898148148148148 0.18865740740740744 0.18518518518518529 0.18287037037037035 0.1805555555555556 0.17939814814814814 0.1782407407407407,0.0 20.0 40.0 60.0 80.0 100.0 120.0 140.0 160.0 180.0 200.0 220.0 240.0 260.0 280.0 300.0 320.0 340.0 360.0 380.0 400.0 420.0 440.0 460.0 480.0 500.0 520.0 540.0 560.0 580.0 600.0 620.0 640.0 660.0 680.0 700.0 720.0 740.0 760.0 780.0 800.0 820.0 840.0
cb_06,14.0,enc_trial,stim,response,Fine Arts students,1099.8000000238535,enc_trial,1.0,14.0,s_a_03_1,student_art,fold-e,palette,6.0,unique,close,paired,s_a_03_1.jpg,art,student-b1,STEM students,Fine Arts students,sub-40,1.0,1.0,1.0,1.0,0.4861111111111111 0.4878472222222222 0.4913194444444444 0.4939236111111111 0.4965277777777778 0.5 0.5 0.5 0.4973958333333333 0.4930555555555556 0.4800347222222222 0.4722222222222222 0.4652777777777778 0.4539930555555556 0.4461805555555556 0.4331597222222222 0.4270833333333333 0.4166666666666667 0.4027777777777778 0.3854166666666667 0.3272569444444444 0.296875 0.2673611111111111 0.24305555555555555 0.2222222222222222 0.21180555555555555 0.2109375 0.2109375 0.2109375 0.2109375 0.2109375 0.2109375 0.2109375 0.2109375 0.21180555555555555 0.2847222222222222 0.3802083333333333 0.5208333333333334 0.609375 0.6909722222222222 0.8159722222222222 0.8506944444444444 0.8611111111111112 0.8645833333333334 0.8680555555555556 0.8680555555555556 0.8680555555555556 0.8680555555555556 0.8697916666666666 0.8723958333333334,0.8391203703703703 0.8321759259259259 0.8171296296296297 0.7997685185185185 0.7777777777777778 0.7361111111111112 0.712962962962963 0.6944444444444444 0.6724537037037037 0.6527777777777778 0.6111111111111112 0.5925925925925926 0.5729166666666667 0.5405092592592593 0.5173611111111112 0.4722222222222222 0.4502314814814815 0.4143518518518519 0.3888888888888888 0.3634259259259259 0.3055555555555556 0.2777777777777778 0.24884259259259256 0.2245370370370371 0.2083333333333333 0.20254629629629628 0.2002314814814815 0.2002314814814815 0.2002314814814815 0.2002314814814815 0.2002314814814815 0.2002314814814815 0.2002314814814815 0.2002314814814815 0.2002314814814815 0.19560185185185186 0.18634259259259256 0.17245370370370372 0.16435185185185186 0.15509259259259256 0.1435185185185185 0.14004629629629628 0.13888888888888884 0.13888888888888884 0.13888888888888884 0.13888888888888884 0.13888888888888884 0.13888888888888884 0.13888888888888884 0.13888888888888884,33.400000000023276 53.400000000023276 73.40000000002328 93.40000000002328 113.40000000002328 133.40000000002328 153.40000000002328 173.40000000002328 193.40000000002328 213.40000000002328 233.40000000002328 253.40000000002328 273.4000000000233 293.4000000000233 313.4000000000233 333.4000000000233 353.40000000002334 373.40000000002334 393.40000000002334 413.40000000002334 433.40000000002334 453.40000000002334 473.40000000002334 493.40000000002334 513.4000000000234 533.4000000000234 553.4000000000234 573.4000000000233 593.4000000000233 613.4000000000233 633.4000000000233 653.4000000000233 673.4000000000233 693.4000000000232 713.4000000000232 733.4000000000232 753.4000000000232 773.4000000000232 793.4000000000232 813.4000000000232 833.4000000000232 853.4000000000232 873.4000000000232 893.4000000000232 913.4000000000232 933.4000000000232 953.4000000000232 973.4000000000232 993.4000000000232 1013.4000000000232
cb_06,15.0,enc_trial,stim,response,STEM students,874.7000000238478,enc_trial,1.0,15.0,s_sh_14_1,student_shared,fold-b,printer,6.0,competing,far,paired,s_sh_14_1.jpg,,student-b1,STEM students,Fine Arts students,sub-40,1.0,1.0,1.0,0.0,0.4991319444444444 0.5034722222222222 0.5069444444444444 0.5112847222222222 0.515625 0.5199652777777778 0.5199652777777778 0.515625 0.5060763888888888 0.4947916666666667 0.4748263888888889 0.4713541666666667 0.46875 0.4652777777777778 0.4592013888888889 0.4383680555555556 0.4270833333333333 0.4123263888888889 0.3949652777777778 0.3723958333333333 0.3185763888888889 0.2881944444444444 0.265625 0.2465277777777778 0.2309027777777778 0.2152777777777778 0.1935763888888889 0.1909722222222222 0.1840277777777778 0.17881944444444445 0.16666666666666666 0.1623263888888889 0.1605902777777778 0.15625 0.15538194444444445 0.1519097222222222 0.14930555555555555,0.7777777777777778 0.7546296296296297 0.7280092592592593 0.6967592592592593 0.6585648148148149 0.5833333333333333 0.5486111111111112 0.5104166666666667 0.4745370370370371 0.4444444444444444 0.39814814814814814 0.3888888888888888 0.3807870370370371 0.3726851851851852 0.36458333333333337 0.33333333333333337 0.3148148148148148 0.29513888888888884 0.2731481481481481 0.25 0.20370370370370366 0.18634259259259256 0.17361111111111116 0.16319444444444442 0.1527777777777778 0.14467592592592593 0.13194444444444442 0.12962962962962965 0.12962962962962965 0.12962962962962965 0.1284722222222222 0.1284722222222222 0.1284722222222222 0.1284722222222222 0.1284722222222222 0.1284722222222222 0.1284722222222222,0.0 20.0 40.0 60.0 80.0 100.0 120.0 140.0 160.0 180.0 200.0 220.0 240.0 260.0 280.0 300.0 320.0 340.0 360.0 380.0 400.0 420.0 440.0 460.0 480.0 500.0 520.0 540.0 560.0 580.0 600.0 620.0 640.0 660.0 680.0 700.0 720.0
cb_06,16.0,enc_trial,stim,response,Fine Arts students,1136.0999999284684,enc_trial,1.0,16.0,s_sh_04_2,student_shared,fold-c,laptop stand,6.0,competing,close,paired,s_sh_04_2.jpg,,student-b1,STEM students,Fine Arts students,sub-40,1.0,1.0,1.0,0.0,0.5017361111111112 0.5017361111111112 0.5034722222222222 0.5069444444444444 0.5112847222222222 0.5190972222222222 0.5199652777777778 0.5199652777777778 0.5199652777777778 0.5199652777777778 0.5199652777777778 0.5199652777777778 0.5199652777777778 0.5199652777777778 0.5199652777777778 0.5199652777777778 0.5190972222222222 0.515625 0.5104166666666666 0.5 0.4548611111111111 0.4279513888888889 0.3923611111111111 0.3559027777777778 0.3151041666666667 0.2526041666666667 0.234375 0.21875 0.203125 0.1892361111111111 0.1840277777777778 0.1840277777777778 0.1840277777777778 0.18836805555555555 0.19791666666666666 0.3368055555555556 0.3845486111111111 0.5277777777777778 0.6119791666666666 0.6883680555555556 0.7986111111111112 0.8151041666666666 0.8194444444444444 0.8203125 0.8203125 0.8203125 0.8220486111111112 0.8255208333333334 0.8289930555555556 0.8333333333333334 0.8350694444444444 0.8350694444444444 0.8350694444444444 0.8359375,0.8009259259259259 0.7916666666666666 0.7731481481481481 0.744212962962963 0.7083333333333333 0.6296296296296297 0.6006944444444444 0.5740740740740741 0.556712962962963 0.5462962962962963 0.5416666666666667 0.5416666666666667 0.5416666666666667 0.5416666666666667 0.5416666666666667 0.5416666666666667 0.5347222222222222 0.5277777777777778 0.5127314814814814 0.4942129629629629 0.4212962962962963 0.3842592592592593 0.34375 0.3032407407407407 0.26388888888888884 0.2152777777777778 0.20254629629629628 0.1909722222222222 0.18287037037037035 0.17592592592592593 0.17245370370370372 0.17245370370370372 0.17245370370370372 0.17013888888888884 0.16782407407407407 0.14930555555555558 0.1435185185185185 0.12962962962962965 0.125 0.12037037037037035 0.1157407407407407 0.1157407407407407 0.11458333333333336 0.11458333333333336 0.11458333333333336 0.11458333333333336 0.11458333333333336 0.1157407407407407 0.11689814814814815 0.11805555555555558 0.12037037037037035 0.12037037037037035 0.12037037037037035 0.12037037037037035,50.0 70.0 90.0 110.0 130.0 150.0 170.0 190.0 210.0 230.0 250.0 270.0 290.0 310.0 330.0 350.0 370.0 390.0 410.0 430.0 450.0 470.0 490.0 510.0 530.0 550.0 570.0 590.0 610.0 630.0 650.0 670.0 690.0 710.0 730.0 750.0 770.0 790.0 810.0 830.0 850.0 870.0 890.0 910.0 930.0 950.0 970.0 990.0 1010.0 1030.0 1050.0 1070.0 1090.0 1110.0
cb_06,17.0,enc_trial,stim,response,Fine Arts students,986.6999999523103,enc_trial,1.0,17.0,s_a_15_2,student_art,fold-d,drum kit,6.0,unique,far,paired,s_a_15_2.jpg,art,student-b1,STEM students,Fine Arts students,sub-40,1.0,1.0,1.0,1.0,0.4956597222222222 0.5017361111111112 0.5138888888888888 0.5338541666666666 0.5546875 0.5876736111111112 0.5972222222222222 0.6006944444444444 0.5998263888888888 0.59375 0.5763888888888888 0.5581597222222222 0.5451388888888888 0.5329861111111112 0.5199652777777778 0.4887152777777778 0.4765625 0.4626736111111111 0.4435763888888889 0.4227430555555556 0.3845486111111111 0.3663194444444444 0.3472222222222222 0.328125 0.3107638888888889 0.3090277777777778 0.3116319444444444 0.3272569444444444 0.3663194444444444 0.4331597222222222 0.5625 0.6189236111111112 0.6970486111111112 0.7421875 0.7760416666666666 0.8116319444444444 0.8272569444444444 0.8376736111111112 0.84375 0.8446180555555556 0.8463541666666666 0.8463541666666666 0.8463541666666666 0.8472222222222222 0.8472222222222222 0.8472222222222222 0.8472222222222222 0.8506944444444444 0.8532986111111112,0.8194444444444444 0.8078703703703703 0.7824074074074074 0.7418981481481481 0.693287037037037 0.5983796296296297 0.5486111111111112 0.5023148148148149 0.4571759259259259 0.4166666666666666 0.3657407407407407 0.3379629629629629 0.3252314814814815 0.31712962962962965 0.31018518518518523 0.3055555555555556 0.3043981481481481 0.30092592592592593 0.2962962962962963 0.28935185185185186 0.2731481481481481 0.2615740740740741 0.24884259259259256 0.2361111111111112 0.22685185185185186 0.22337962962962965 0.21759259259259256 0.2118055555555556 0.20254629629629628 0.1875 0.17708333333333334 0.17708333333333334 0.17708333333333334 0.17708333333333334 0.17592592592592593 0.17592592592592593 0.17361111111111116 0.17129629629629628 0.17129629629629628 0.17129629629629628 0.17013888888888884 0.17013888888888884 0.17013888888888884 0.17013888888888884 0.17013888888888884 0.17013888888888884 0.17013888888888884 0.17013888888888884 0.17013888888888884,0.0 20.0 40.0 60.0 80.0 100.0 120.0 140.0 160.0 180.0 200.0 220.0 240.0 260.0 280.0 300.0 320.0 340.0 360.0 380.0 400.0 420.0 440.0 460.0 480.0 500.0 520.0 540.0 560.0 580.0 600.0 620.0 640.0 660.0 680.0 700.0 720.0 740.0 760.0 780.0 800.0 820.0 840.0 860.0 880.0 900.0 920.0 940.0 960.0
cb_06,18.0,enc_trial,stim,response,STEM students,1092.399999976158,enc_trial,1.0,18.0,s_s_20_2,student_stem,fold-d,dna model,6.0,unique,far,paired,s_s_20_2.jpg,stem,student-b1,STEM students,Fine Arts students,sub-40,1.0,1.0,1.0,1.0,0.5086805555555556 0.5182291666666666 0.5295138888888888 0.5434027777777778 0.546875 0.5460069444444444 0.5373263888888888 0.5286458333333334 0.5208333333333334 0.5138888888888888 0.5078125 0.5078125 0.5078125 0.5078125 0.5078125 0.5078125 0.5078125 0.5078125 0.5086805555555556 0.5095486111111112 0.5121527777777778 0.5121527777777778 0.5121527777777778 0.5043402777777778 0.4982638888888889 0.4904513888888889 0.4314236111111111 0.3897569444444444 0.3515625 0.3185763888888889 0.2586805555555556 0.25 0.2465277777777778 0.24305555555555555 0.2387152777777778 0.2361111111111111 0.2309027777777778 0.22569444444444445 0.21961805555555555 0.2152777777777778 0.2048611111111111 0.18229166666666666 0.171875 0.1597222222222222 0.1484375 0.1371527777777778 0.13194444444444445,0.8009259259259259 0.775462962962963 0.7361111111111112 0.662037037037037 0.6122685185185186 0.5162037037037037 0.4537037037037037 0.4166666666666666 0.3900462962962963 0.3657407407407407 0.34837962962962965 0.3472222222222222 0.3472222222222222 0.3472222222222222 0.3472222222222222 0.3472222222222222 0.3472222222222222 0.3472222222222222 0.34490740740740744 0.34259259259259256 0.3402777777777778 0.3402777777777778 0.3379629629629629 0.3252314814814815 0.3194444444444444 0.31712962962962965 0.31018518518518523 0.3055555555555556 0.2986111111111112 0.29166666666666663 0.2731481481481481 0.2685185185185185 0.2673611111111112 0.26388888888888884 0.2615740740740741 0.2592592592592593 0.2557870370370371 0.2523148148148148 0.2465277777777778 0.2407407407407407 0.2314814814814815 0.2060185185185185 0.1909722222222222 0.1747685185185185 0.15740740740740744 0.13888888888888884 0.12731481481481474,0.0 20.0 40.0 60.0 80.0 100.0 120.0 140.0 160.0 180.0 200.0 220.0 240.0 260.0 280.0 300.0 320.0 340.0 360.0 380.0 400.0 420.0 440.0 460.0 480.0 500.0 520.0 540.0 560.0 580.0 600.0 620.0 640.0 660.0 680.0 700.0 720.0 740.0 760.0 780.0 800.0 820.0 840.0 860.0 880.0 900.0 920.0
cb_06,19.0,enc_trial,stim,response,Fine Arts students,1451.5,enc_trial,1.0,19.0,s_a_06_1,student_art,fold-d,pastels,6.0,unique,far,paired,s_a_06_1.jpg,art,student-b1,STEM students,Fine Arts students,sub-40,1.0,1.0,1.0,1.0,0.4930555555555556 0.4956597222222222 0.4991319444444444 0.5026041666666666 0.5069444444444444 0.515625 0.5217013888888888 0.5260416666666666 0.5295138888888888 0.53125 0.5329861111111112 0.5329861111111112 0.5329861111111112 0.5329861111111112 0.5329861111111112 0.5329861111111112 0.5329861111111112 0.5329861111111112 0.5329861111111112 0.5338541666666666 0.5347222222222222 0.5355902777777778 0.5364583333333334 0.5364583333333334 0.5364583333333334 0.5364583333333334 0.5364583333333334 0.53125 0.5243055555555556 0.5147569444444444 0.4782986111111111 0.4496527777777778 0.4184027777777778 0.3880208333333333 0.3576388888888889 0.3376736111111111 0.3376736111111111 0.3368055555555556 0.3454861111111111 0.3723958333333333 0.5217013888888888 0.6232638888888888 0.71875 0.7986111111111112 0.8611111111111112 0.9123263888888888 0.9678819444444444 0.9809027777777778 0.984375 0.984375 0.9852430555555556 0.9852430555555556 0.9852430555555556 0.9852430555555556 0.9852430555555556 0.9852430555555556 0.9852430555555556 0.9852430555555556 0.9852430555555556 0.9852430555555556 0.9852430555555556 0.9852430555555556 0.9852430555555556 0.9852430555555556 0.9817708333333334 0.9756944444444444 0.9583333333333334 0.9444444444444444 0.9279513888888888 0.9123263888888888 0.8967013888888888 0.8958333333333334,0.8229166666666666 0.8148148148148149 0.7974537037037037 0.7777777777777778 0.7546296296296297 0.7025462962962963 0.6759259259259259 0.65625 0.6388888888888888 0.6261574074074074 0.6134259259259259 0.6134259259259259 0.6134259259259259 0.6134259259259259 0.6134259259259259 0.6134259259259259 0.6134259259259259 0.6134259259259259 0.6134259259259259 0.6064814814814814 0.5844907407407407 0.5671296296296297 0.5416666666666667 0.5138888888888888 0.4861111111111112 0.4571759259259259 0.40625 0.3865740740740741 0.36689814814814814 0.3472222222222222 0.30092592592592593 0.28240740740740744 0.2592592592592593 0.2349537037037037 0.207175925925926 0.18518518518518529 0.18518518518518529 0.1817129629629629 0.17592592592592593 0.16782407407407407 0.15162037037037035 0.14930555555555558 0.14930555555555558 0.14930555555555558 0.1527777777777778 0.15625 0.16435185185185186 0.16666666666666666 0.16782407407407407 0.1689814814814815 0.1689814814814815 0.1689814814814815 0.1689814814814815 0.1689814814814815 0.1689814814814815 0.1689814814814815 0.1689814814814815 0.1689814814814815 0.1689814814814815 0.1689814814814815 0.17129629629629628 0.17129629629629628 0.17129629629629628 0.17129629629629628 0.17129629629629628 0.17129629629629628 0.17361111111111116 0.17361111111111116 0.17361111111111116 0.17361111111111116 0.17361111111111116 0.17361111111111116,16.39999999999418 36.39999999999418 56.39999999999418 76.3999999999942 96.39999999999418 116.39999999999418 136.39999999999418 156.39999999999418 176.3999999999942 196.39999999999415 216.39999999999415 236.39999999999415 256.3999999999942 276.3999999999942 296.3999999999942 316.3999999999942 336.3999999999942 356.3999999999942 376.3999999999942 396.3999999999942 416.3999999999942 436.3999999999942 456.3999999999942 476.3999999999942 496.3999999999942 516.3999999999942 536.3999999999942 556.3999999999942 576.3999999999943 596.3999999999943 616.3999999999943 636.3999999999943 656.3999999999943 676.3999999999943 696.3999999999942 716.3999999999942 736.3999999999942 756.3999999999942 776.3999999999942 796.3999999999942 816.3999999999942 836.3999999999942 856.3999999999942 876.3999999999942 896.3999999999942 916.3999999999942 936.3999999999942 956.3999999999942 976.3999999999942 996.3999999999942 1016.3999999999942 1036.3999999999942 1056.3999999999942 1076.3999999999942 1096.3999999999942 1116.3999999999942 1136.3999999999942 1156.3999999999942 1176.3999999999942 1196.3999999999942 1216.3999999999942 1236.3999999999942 1256.3999999999942 1276.3999999999942 1296.3999999999942 1316.3999999999942 1336.3999999999942 1356.3999999999942 1376.3999999999942 1396.3999999999942 1416.3999999999942 1436.3999999999942
cb_06,20.0,enc_trial,stim,response,Fine Arts students,912.7999999761523,enc_trial,1.0,20.0,s_a_03_2,student_art,fold-e,palette,6.0,unique,close,paired,s_a_03_2.jpg,art,student-b1,STEM students,Fine Arts students,sub-40,1.0,1.0,1.0,1.0,0.4965277777777778 0.5 0.5069444444444444 0.5121527777777778 0.5173611111111112 0.5269097222222222 0.5277777777777778 0.5303819444444444 0.5303819444444444 0.5303819444444444 0.5303819444444444 0.5295138888888888 0.5286458333333334 0.5277777777777778 0.5269097222222222 0.5225694444444444 0.5199652777777778 0.5164930555555556 0.5121527777777778 0.5086805555555556 0.5225694444444444 0.5512152777777778 0.5972222222222222 0.6553819444444444 0.7118055555555556 0.7994791666666666 0.8020833333333334 0.8020833333333334 0.8020833333333334 0.8020833333333334 0.8020833333333334 0.8020833333333334 0.8020833333333334 0.8020833333333334 0.8020833333333334 0.8020833333333334 0.8038194444444444 0.8055555555555556 0.8081597222222222 0.8133680555555556 0.8350694444444444 0.8411458333333334 0.8463541666666666 0.8480902777777778 0.8498263888888888,0.8321759259259259 0.8194444444444444 0.7916666666666666 0.7685185185185185 0.7453703703703703 0.6921296296296297 0.6678240740740741 0.6493055555555556 0.6342592592592593 0.6296296296296297 0.6238425925925926 0.6099537037037037 0.6006944444444444 0.5949074074074074 0.587962962962963 0.5752314814814814 0.5694444444444444 0.5601851851851851 0.5462962962962963 0.53125 0.4849537037037037 0.4560185185185185 0.4166666666666666 0.375 0.34143518518518523 0.28587962962962965 0.28240740740740744 0.28240740740740744 0.28240740740740744 0.28009259259259256 0.2754629629629629 0.2731481481481481 0.27083333333333337 0.27083333333333337 0.2673611111111112 0.26041666666666663 0.2534722222222222 0.24537037037037035 0.2372685185185185 0.22916666666666666 0.19791666666666666 0.1898148148148148 0.18287037037037035 0.1782407407407407 0.17592592592592593,0.0 20.0 40.0 60.0 80.0 100.0 120.0 140.0 160.0 180.0 200.0 220.0 240.0 260.0 280.0 300.0 320.0 340.0 360.0 380.0 400.0 420.0 440.0 460.0 480.0 500.0 520.0 540.0 560.0 580.0 600.0 620.0 640.0 660.0 680.0 700.0 720.0 740.0 760.0 780.0 800.0 820.0 840.0 860.0 880.0
cb_06,21.0,enc_trial,stim,response,STEM students,1028.4999999284628,enc_trial,1.0,21.0,s_s_17_2,student_stem,fold-e,ring stand,6.0,unique,close,paired,s_s_17_2.jpg,stem,student-b1,STEM students,Fine Arts students,sub-40,1.0,1.0,1.0,1.0,0.5034722222222222 0.5052083333333334 0.5086805555555556 0.5208333333333334 0.5286458333333334 0.5416666666666666 0.546875 0.5503472222222222 0.5512152777777778 0.5512152777777778 0.5520833333333334 0.5520833333333334 0.5520833333333334 0.5546875 0.5546875 0.5546875 0.5546875 0.5520833333333334 0.5486111111111112 0.5477430555555556 0.5460069444444444 0.5442708333333334 0.5416666666666666 0.5390625 0.5303819444444444 0.5034722222222222 0.4809027777777778 0.4505208333333333 0.390625 0.3472222222222222 0.2855902777777778 0.2673611111111111 0.2526041666666667 0.2465277777777778 0.2465277777777778 0.2465277777777778 0.2439236111111111 0.24305555555555555 0.24305555555555555 0.24305555555555555 0.24305555555555555 0.2361111111111111 0.22916666666666666 0.2126736111111111 0.1987847222222222 0.1840277777777778 0.15625 0.14149305555555555 0.1362847222222222,0.8148148148148149 0.8078703703703703 0.8009259259259259 0.7731481481481481 0.7546296296296297 0.7175925925925926 0.7013888888888888 0.6805555555555556 0.6736111111111112 0.6689814814814814 0.6527777777777778 0.6412037037037037 0.6238425925925926 0.6064814814814814 0.5902777777777778 0.5648148148148149 0.5509259259259259 0.5381944444444444 0.5266203703703703 0.5185185185185186 0.5046296296296297 0.4953703703703704 0.4884259259259259 0.4791666666666666 0.4629629629629629 0.4259259259259259 0.4039351851851852 0.3784722222222222 0.3344907407407407 0.3055555555555556 0.2592592592592593 0.2442129629629629 0.23263888888888884 0.22916666666666666 0.2280092592592593 0.2280092592592593 0.2256944444444444 0.2245370370370371 0.2245370370370371 0.2245370370370371 0.2245370370370371 0.21990740740740744 0.2152777777777778 0.20370370370370366 0.19212962962962965 0.18287037037037035 0.16087962962962965 0.14814814814814814 0.1435185185185185,33.0 53.0 73.0 93.0 113.0 133.0 153.0 173.0 193.0 213.0 233.0 253.0 273.0 293.0 313.0 333.0 353.0 373.0 393.0 413.0 433.0 453.0 473.0 493.0 513.0 533.0 553.0 573.0 593.0 613.0 633.0 653.0 673.0 693.0 713.0 733.0 753.0 773.0 793.0 813.0 833.0 853.0 873.0 893.0 913.0 933.0 953.0 973.0 993.0
cb_06,22.0,enc_trial,stim,response,Fine Arts students,1036.8000000238535,enc_trial,1.0,22.0,s_sh_24_2,student_shared,fold-b,desk organizer,6.0,competing,far,paired,s_sh_24_2.jpg,,student-b1,STEM students,Fine Arts students,sub-40,1.0,1.0,1.0,0.0,0.4930555555555556 0.4947916666666667 0.4973958333333333 0.5017361111111112 0.5052083333333334 0.5078125 0.5121527777777778 0.5121527777777778 0.5121527777777778 0.5121527777777778 0.5121527777777778 0.5121527777777778 0.5121527777777778 0.5121527777777778 0.5121527777777778 0.5121527777777778 0.5121527777777778 0.5121527777777778 0.5121527777777778 0.5121527777777778 0.5138888888888888 0.5147569444444444 0.5147569444444444 0.5147569444444444 0.5164930555555556 0.5269097222222222 0.5425347222222222 0.5763888888888888 0.6197916666666666 0.6597222222222222 0.6901041666666666 0.7300347222222222 0.7447916666666666 0.7560763888888888 0.7604166666666666 0.7604166666666666 0.7604166666666666 0.7604166666666666 0.7612847222222222 0.7621527777777778 0.7638888888888888 0.7664930555555556 0.7717013888888888 0.7795138888888888 0.7881944444444444 0.7994791666666666 0.8237847222222222 0.8350694444444444 0.8428819444444444 0.84375,0.8032407407407407 0.7858796296296297 0.7615740740740741 0.7303240740740741 0.6921296296296297 0.6481481481481481 0.5775462962962963 0.5555555555555556 0.5462962962962963 0.5462962962962963 0.5462962962962963 0.5462962962962963 0.5462962962962963 0.5462962962962963 0.5462962962962963 0.5462962962962963 0.5462962962962963 0.5405092592592593 0.5266203703703703 0.5069444444444444 0.4583333333333334 0.43634259259259256 0.4178240740740741 0.4039351851851852 0.3935185185185185 0.3726851851851852 0.3611111111111112 0.34490740740740744 0.3298611111111112 0.3159722222222222 0.30787037037037035 0.29166666666666663 0.28125 0.2743055555555556 0.27083333333333337 0.26388888888888884 0.2569444444444444 0.25 0.24537037037037035 0.2395833333333333 0.22337962962962965 0.2129629629629629 0.20254629629629628 0.1909722222222222 0.1805555555555556 0.17245370370370372 0.16087962962962965 0.15856481481481474 0.15740740740740744 0.15625,0.0 20.0 40.0 60.0 80.0 100.0 120.0 140.0 160.0 180.0 200.0 220.0 240.0 260.0 280.0 300.0 320.0 340.0 360.0 380.0 400.0 420.0 440.0 460.0 480.0 500.0 520.0 540.0 560.0 580.0 600.0 620.0 640.0 660.0 680.0 700.0 720.0 740.0 760.0 780.0 800.0 820.0 840.0 860.0 880.0 900.0 920.0 940.0 960.0 980.0
cb_06,23.0,enc_trial,stim,response,STEM students,1179.7999999999886,enc_trial,1.0,23.0,s_sh_11_1,student_shared,fold-b,pencil case,6.0,competing,far,paired,s_sh_11_1.jpg,,student-b1,STEM students,Fine Arts students,sub-40,1.0,1.0,1.0,0.0,0.5069444444444444 0.5069444444444444 0.5078125 0.5112847222222222 0.5173611111111112 0.5277777777777778 0.53125 0.5321180555555556 0.5321180555555556 0.5321180555555556 0.5321180555555556 0.5321180555555556 0.5321180555555556 0.5321180555555556 0.5321180555555556 0.5321180555555556 0.5321180555555556 0.5321180555555556 0.5303819444444444 0.5277777777777778 0.5130208333333334 0.5034722222222222 0.4956597222222222 0.4887152777777778 0.4826388888888889 0.4722222222222222 0.4661458333333333 0.4609375 0.4539930555555556 0.4470486111111111 0.4427083333333333 0.4427083333333333 0.4487847222222222 0.46875 0.4956597222222222 0.5208333333333334 0.5190972222222222 0.4965277777777778 0.4513888888888889 0.3888888888888889 0.2769097222222222 0.2378472222222222 0.2144097222222222 0.19791666666666666 0.1875 0.17274305555555555 0.17274305555555555 0.17274305555555555 0.17274305555555555 0.17274305555555555 0.17274305555555555 0.1701388888888889 0.1675347222222222 0.1605902777777778 0.1519097222222222 0.140625 0.140625 0.140625 0.140625,0.8206018518518519 0.8148148148148149 0.7997685185185185 0.7731481481481481 0.7407407407407407 0.662037037037037 0.6284722222222222 0.599537037037037 0.5740740740740741 0.5590277777777778 0.5520833333333333 0.5497685185185186 0.5462962962962963 0.5462962962962963 0.5462962962962963 0.5416666666666667 0.5393518518518519 0.5266203703703703 0.5138888888888888 0.505787037037037 0.46875 0.4490740740740741 0.4282407407407407 0.4085648148148148 0.3923611111111112 0.3611111111111112 0.3472222222222222 0.3356481481481481 0.32291666666666663 0.31134259259259256 0.3055555555555556 0.30092592592592593 0.2962962962962963 0.2881944444444444 0.28240740740740744 0.2777777777777778 0.2777777777777778 0.28009259259259256 0.2835648148148148 0.28587962962962965 0.2719907407407407 0.2523148148148148 0.238425925925926 0.22916666666666666 0.2210648148148148 0.2129629629629629 0.2129629629629629 0.2118055555555556 0.2118055555555556 0.2118055555555556 0.2118055555555556 0.2094907407407407 0.2083333333333333 0.2002314814814815 0.1898148148148148 0.17361111111111116 0.17129629629629628 0.17129629629629628 0.17013888888888884,16.699999999982538 36.69999999998254 56.69999999998254 76.69999999998255 96.69999999998255 116.69999999998255 136.69999999998254 156.69999999998254 176.69999999998254 196.69999999998254 216.69999999998254 236.69999999998254 256.69999999998254 276.69999999998254 296.6999999999825 316.6999999999825 336.6999999999825 356.69999999998254 376.69999999998254 396.69999999998254 416.69999999998254 436.69999999998254 456.69999999998254 476.69999999998254 496.69999999998254 516.6999999999825 536.6999999999825 556.6999999999825 576.6999999999825 596.6999999999825 616.6999999999825 636.6999999999825 656.6999999999825 676.6999999999825 696.6999999999824 716.6999999999824 736.6999999999824 756.6999999999824 776.6999999999824 796.6999999999824 816.6999999999824 836.6999999999824 856.6999999999824 876.6999999999824 896.6999999999824 916.6999999999823 936.6999999999823 956.6999999999823 976.6999999999823 996.6999999999823 1016.6999999999823 1036.6999999999823 1056.6999999999823 1076.6999999999823 1096.6999999999823 1116.6999999999823 1136.6999999999825 1156.6999999999825 1176.6999999999825
cb_06,24.0,enc_trial,stim,response,STEM students,1023.999999952328,enc_trial,1.0,24.0,s_sh_10_1,student_shared,fold-b,scissors,6.0,competing,far,paired,s_sh_10_1.jpg,,student-b1,STEM students,Fine Arts students,sub-40,1.0,1.0,1.0,1.0,0.5052083333333334 0.5121527777777778 0.5182291666666666 0.5234375 0.5277777777777778 0.53125 0.5347222222222222 0.5381944444444444 0.5390625 0.5390625 0.5390625 0.5390625 0.5390625 0.5390625 0.5390625 0.5390625 0.5390625 0.5390625 0.5390625 0.5390625 0.5390625 0.5416666666666666 0.5520833333333334 0.5694444444444444 0.5885416666666666 0.6006944444444444 0.6041666666666666 0.5902777777777778 0.5685763888888888 0.5338541666666666 0.4878472222222222 0.3680555555555556 0.3142361111111111 0.2725694444444444 0.2482638888888889 0.234375 0.2170138888888889 0.21180555555555555 0.2083333333333333 0.2065972222222222 0.2048611111111111 0.1970486111111111 0.1953125 0.1935763888888889 0.1892361111111111 0.1848958333333333 0.1762152777777778 0.17100694444444445 0.1675347222222222 0.1640625 0.1623263888888889,0.8229166666666666 0.8055555555555556 0.7824074074074074 0.755787037037037 0.7314814814814814 0.7106481481481481 0.6770833333333333 0.6643518518518519 0.6527777777777778 0.6493055555555556 0.6446759259259259 0.6446759259259259 0.6446759259259259 0.6446759259259259 0.6446759259259259 0.6446759259259259 0.6446759259259259 0.6435185185185186 0.6388888888888888 0.625 0.6041666666666667 0.537037037037037 0.5023148148148149 0.4664351851851852 0.4305555555555556 0.4027777777777778 0.37384259259259256 0.3622685185185185 0.3564814814814815 0.3530092592592593 0.3495370370370371 0.3194444444444444 0.28935185185185186 0.2557870370370371 0.23263888888888884 0.2152777777777778 0.1817129629629629 0.16782407407407407 0.15740740740740744 0.14930555555555558 0.1469907407407407 0.1307870370370371 0.12962962962962965 0.12615740740740744 0.11805555555555558 0.11458333333333336 0.11111111111111116 0.11111111111111116 0.11111111111111116 0.11111111111111116 0.11111111111111116,0.0 20.0 40.0 60.0 80.0 100.0 120.0 140.0 160.0 180.0 200.0 220.0 240.0 260.0 280.0 300.0 320.0 340.0 360.0 380.0 400.0 420.0 440.0 460.0 480.0 500.0 520.0 540.0 560.0 580.0 600.0 620.0 640.0 660.0 680.0 700.0 720.0 740.0 760.0 780.0 800.0 820.0 840.0 860.0 880.0 900.0 920.0 940.0 960.0 980.0 1000.0
cb_06,25.0,enc_trial,stim,response,STEM students,1030.9000000238302,enc_trial,1.0,25.0,s_sh_20_1,student_shared,fold-c,tape,6.0,competing,close,paired,s_sh_20_1.jpg,,student-b1,STEM students,Fine Arts students,sub-40,1.0,1.0,1.0,1.0,0.5008680555555556 0.5052083333333334 0.5095486111111112 0.5138888888888888 0.5190972222222222 0.5329861111111112 0.5355902777777778 0.5364583333333334 0.5364583333333334 0.5364583333333334 0.5364583333333334 0.5355902777777778 0.5338541666666666 0.5321180555555556 0.5295138888888888 0.5260416666666666 0.5243055555555556 0.5243055555555556 0.5243055555555556 0.5225694444444444 0.5190972222222222 0.5052083333333334 0.4895833333333333 0.4565972222222222 0.4331597222222222 0.3949652777777778 0.3758680555555556 0.3350694444444444 0.3055555555555556 0.28125 0.25 0.23697916666666666 0.2248263888888889 0.21354166666666666 0.2048611111111111 0.2048611111111111 0.20399305555555555 0.20399305555555555 0.20399305555555555 0.20399305555555555 0.2013888888888889 0.19010416666666666 0.1857638888888889 0.1762152777777778 0.1701388888888889 0.1597222222222222 0.15538194444444445,0.8217592592592593 0.8101851851851851 0.7962962962962963 0.7789351851851851 0.7592592592592593 0.7083333333333333 0.6875 0.6666666666666667 0.6435185185185186 0.6203703703703703 0.5787037037037037 0.5625 0.5462962962962963 0.5300925925925926 0.5185185185185186 0.5011574074074074 0.4942129629629629 0.4849537037037037 0.4768518518518519 0.4699074074074074 0.4594907407407407 0.4386574074074073 0.4259259259259259 0.40625 0.39583333333333337 0.375 0.3611111111111112 0.3310185185185185 0.3090277777777778 0.2870370370370371 0.25462962962962965 0.2407407407407407 0.22685185185185186 0.2152777777777778 0.207175925925926 0.20370370370370366 0.20370370370370366 0.20370370370370366 0.20370370370370366 0.20370370370370366 0.19907407407407407 0.1840277777777778 0.17708333333333334 0.1689814814814815 0.1620370370370371 0.15162037037037035 0.14583333333333334,83.0 103.0 123.0 143.0 163.0 183.0 203.0 223.0 243.0 263.0 283.0 303.0 323.0 343.0 363.0 383.0 403.0 423.0 443.0 463.0 483.0 503.0 523.0 543.0 563.0 583.0 603.0 623.0 643.0 663.0 683.0 703.0 723.0 743.0 763.0 783.0 803.0 823.0 843.0 863.0 883.0 903.0 923.0 943.0 963.0 983.0 1003.0
cb_06,26.0,enc_trial,stim,response,STEM students,901.6000000000058,enc_trial,1.0,26.0,s_s_11_2,student_stem,fold-d,scientific scale,6.0,unique,far,paired,s_s_11_2.jpg,stem,student-b1,STEM students,Fine Arts students,sub-40,1.0,1.0,1.0,1.0,0.5034722222222222 0.5052083333333334 0.5078125 0.5104166666666666 0.5121527777777778 0.5164930555555556 0.5173611111111112 0.5173611111111112 0.5173611111111112 0.5173611111111112 0.5147569444444444 0.5121527777777778 0.5104166666666666 0.5104166666666666 0.5104166666666666 0.5078125 0.5069444444444444 0.5017361111111112 0.4982638888888889 0.4930555555555556 0.4800347222222222 0.4696180555555556 0.4565972222222222 0.4444444444444444 0.4331597222222222 0.4097222222222222 0.3888888888888889 0.3741319444444444 0.3567708333333333 0.3350694444444444 0.2777777777777778 0.25 0.2230902777777778 0.1987847222222222 0.18055555555555555 0.16927083333333334 0.1527777777777778 0.14756944444444445 0.1440972222222222 0.1440972222222222 0.1440972222222222 0.1440972222222222 0.1440972222222222 0.1440972222222222 0.14322916666666666,0.8229166666666666 0.8159722222222222 0.8043981481481481 0.7881944444444444 0.7685185185185185 0.7210648148148149 0.693287037037037 0.6458333333333333 0.6145833333333333 0.5798611111111112 0.5173611111111112 0.4756944444444444 0.4525462962962963 0.4351851851851852 0.42708333333333337 0.4143518518518519 0.4074074074074073 0.39814814814814814 0.3912037037037037 0.3819444444444444 0.3622685185185185 0.3472222222222222 0.33333333333333337 0.3194444444444444 0.3043981481481481 0.2731481481481481 0.25462962962962965 0.2442129629629629 0.2337962962962963 0.2210648148148148 0.1805555555555556 0.1620370370370371 0.1435185185185185 0.12615740740740744 0.11458333333333336 0.10416666666666664 0.09259259259259256 0.08796296296296291 0.08564814814814814 0.08564814814814814 0.08564814814814814 0.08564814814814814 0.08564814814814814 0.08564814814814814 0.08564814814814814,0.0 20.0 40.0 60.0 80.0 100.0 120.0 140.0 160.0 180.0 200.0 220.0 240.0 260.0 280.0 300.0 320.0 340.0 360.0 380.0 400.0 420.0 440.0 460.0 480.0 500.0 520.0 540.0 560.0 580.0 600.0 620.0 640.0 660.0 680.0 700.0 720.0 740.0 760.0 780.0 800.0 820.0 840.0 860.0 880.0
cb_06,27.0,enc_trial,stim,response,STEM students,883.5,enc_trial,1.0,27.0,s_s_17_1,student_stem,fold-e,ring stand,6.0,unique,close,paired,s_s_17_1.jpg,stem,student-b1,STEM students,Fine Arts students,sub-40,1.0,1.0,1.0,1.0,0.5 0.5 0.5 0.5 0.5 0.5 0.4991319444444444 0.4965277777777778 0.4947916666666667 0.4930555555555556 0.4913194444444444 0.4878472222222222 0.4861111111111111 0.4835069444444444 0.4826388888888889 0.4809027777777778 0.4791666666666667 0.4791666666666667 0.4782986111111111 0.4774305555555556 0.4756944444444444 0.4513888888888889 0.4314236111111111 0.4010416666666667 0.3663194444444444 0.3368055555555556 0.2873263888888889 0.2699652777777778 0.2543402777777778 0.2404513888888889 0.2326388888888889 0.2239583333333333 0.22135416666666666 0.21875 0.21875 0.2170138888888889 0.2083333333333333 0.2013888888888889 0.19444444444444445 0.1857638888888889 0.17274305555555555 0.14583333333333334 0.1440972222222222,0.8217592592592593 0.8078703703703703 0.7916666666666666 0.7731481481481481 0.75 0.724537037037037 0.6655092592592593 0.6446759259259259 0.625 0.6087962962962963 0.5914351851851851 0.5601851851851851 0.5474537037037037 0.5335648148148149 0.5219907407407407 0.5115740740740741 0.4918981481481482 0.4837962962962963 0.4768518518518519 0.46875 0.4583333333333334 0.4212962962962963 0.4016203703703704 0.375 0.34837962962962965 0.3194444444444444 0.2569444444444444 0.2361111111111112 0.21990740740740744 0.2060185185185185 0.19907407407407407 0.1898148148148148 0.18865740740740744 0.1875 0.1875 0.1875 0.1875 0.18634259259259256 0.18518518518518529 0.18287037037037035 0.17708333333333334 0.16435185185185186 0.16319444444444442,0.0 20.0 40.0 60.0 80.0 100.0 120.0 140.0 160.0 180.0 200.0 220.0 240.0 260.0 280.0 300.0 320.0 340.0 360.0 380.0 400.0 420.0 440.0 460.0 480.0 500.0 520.0 540.0 560.0 580.0 600.0 620.0 640.0 660.0 680.0 700.0 720.0 740.0 760.0 780.0 800.0 820.0 840.0
cb_06,28.0,enc_trial,stim,response,Fine Arts students,1736.3999999999942,enc_trial,1.0,28.0,s_a_10_1,student_art,fold-a-single,tripod,6.0,unique,,single,s_a_10_1.jpg,art,student-b1,STEM students,Fine Arts students,sub-40,1.0,,1.0,,0.4991319444444444 0.5 0.5026041666666666 0.5069444444444444 0.5138888888888888 0.5347222222222222 0.5399305555555556 0.5416666666666666 0.5416666666666666 0.5416666666666666 0.5390625 0.5338541666666666 0.5243055555555556 0.5104166666666666 0.4939236111111111 0.4600694444444444 0.4435763888888889 0.4270833333333333 0.4123263888888889 0.3967013888888889 0.3697916666666667 0.3585069444444444 0.3489583333333333 0.3368055555555556 0.3263888888888889 0.2986111111111111 0.2795138888888889 0.2552083333333333 0.24305555555555555 0.234375 0.22743055555555555 0.2222222222222222 0.2161458333333333 0.21180555555555555 0.2065972222222222 0.203125 0.2013888888888889 0.1953125 0.1909722222222222 0.1848958333333333 0.17100694444444445 0.16319444444444445 0.1545138888888889 0.14322916666666666 0.1423611111111111 0.1423611111111111 0.1423611111111111 0.1423611111111111 0.1423611111111111 0.1423611111111111 0.1423611111111111 0.1423611111111111 0.1467013888888889 0.16666666666666666 0.2170138888888889 0.3949652777777778 0.4956597222222222 0.59375 0.6831597222222222 0.7673611111111112 0.8854166666666666 0.9114583333333334 0.9305555555555556 0.9331597222222222 0.9340277777777778 0.9348958333333334 0.9348958333333334 0.9383680555555556 0.9444444444444444 0.9513888888888888 0.9574652777777778 0.9574652777777778 0.9574652777777778 0.9557291666666666 0.9496527777777778 0.9244791666666666 0.9114583333333334 0.90625 0.9053819444444444 0.9001736111111112,0.8425925925925926 0.837962962962963 0.8287037037037037 0.8090277777777778 0.7789351851851851 0.6527777777777778 0.5983796296296297 0.556712962962963 0.5185185185185186 0.4849537037037037 0.4317129629629629 0.4097222222222222 0.3877314814814815 0.36458333333333337 0.3402777777777778 0.2939814814814815 0.2731481481481481 0.25462962962962965 0.2361111111111112 0.2222222222222222 0.2060185185185185 0.20254629629629628 0.2002314814814815 0.2002314814814815 0.19907407407407407 0.19560185185185186 0.1932870370370371 0.19212962962962965 0.19212962962962965 0.19212962962962965 0.19212962962962965 0.19212962962962965 0.19212962962962965 0.19212962962962965 0.19212962962962965 0.19212962962962965 0.19212962962962965 0.19212962962962965 0.1909722222222222 0.1898148148148148 0.1817129629629629 0.17592592592592593 0.17013888888888884 0.16319444444444442 0.16319444444444442 0.16319444444444442 0.16319444444444442 0.16319444444444442 0.16319444444444442 0.16319444444444442 0.16319444444444442 0.16319444444444442 0.1597222222222222 0.15509259259259256 0.14583333333333334 0.11458333333333336 0.10069444444444442 0.08796296296296291 0.0844907407407407 0.0844907407407407 0.0844907407407407 0.0844907407407407 0.08796296296296291 0.08912037037037035 0.0902777777777778 0.0902777777777778 0.0902777777777778 0.09490740740740744 0.10416666666666664 0.11342592592592593 0.12268518518518524 0.12268518518518524 0.12268518518518524 0.125 0.12962962962962965 0.13888888888888884 0.1435185185185185 0.1435185185185185 0.1435185185185185 0.14467592592592593,150.39999999999418 170.39999999999418 190.39999999999415 210.39999999999415 230.39999999999415 250.39999999999415 270.3999999999942 290.3999999999942 310.3999999999942 330.3999999999942 350.3999999999942 370.3999999999942 390.3999999999942 410.3999999999942 430.3999999999942 450.3999999999942 470.3999999999942 490.3999999999942 510.3999999999942 530.3999999999942 550.3999999999942 570.3999999999943 590.3999999999943 610.3999999999943 630.3999999999943 650.3999999999943 670.3999999999943 690.3999999999942 710.3999999999942 730.3999999999942 750.3999999999942 770.3999999999942 790.3999999999942 810.3999999999942 830.3999999999942 850.3999999999942 870.3999999999942 890.3999999999942 910.3999999999942 930.3999999999942 950.3999999999942 970.3999999999942 990.3999999999942 1010.3999999999942 1030.3999999999942 1050.3999999999942 1070.3999999999942 1090.3999999999942 1110.3999999999942 1130.3999999999942 1150.3999999999942 1170.3999999999942 1190.3999999999942 1210.3999999999942 1230.3999999999942 1250.3999999999942 1270.3999999999942 1290.3999999999942 1310.3999999999942 1330.3999999999942 1350.3999999999942 1370.3999999999942 1390.3999999999942 1410.3999999999942 1430.3999999999942 1450.3999999999942 1470.3999999999942 1490.3999999999942 1510.3999999999942 1530.3999999999942 1550.3999999999942 1570.3999999999942 1590.3999999999942 1610.3999999999942 1630.3999999999942 1650.3999999999942 1670.3999999999942 1690.3999999999942 1710.3999999999942 1730.3999999999942
cb_06,29.0,enc_trial,stim,response,STEM students,1300.0999999999767,enc_trial,1.0,29.0,s_sh_07_1,student_shared,fold-a-single,ruler,6.0,competing,,single,s_sh_07_1.jpg,,student-b1,STEM students,Fine Arts students,sub-40,1.0,,1.0,,0.5104166666666666 0.5104166666666666 0.5138888888888888 0.515625 0.515625 0.515625 0.5147569444444444 0.5121527777777778 0.5086805555555556 0.5060763888888888 0.5043402777777778 0.5 0.4982638888888889 0.4965277777777778 0.4947916666666667 0.4939236111111111 0.4939236111111111 0.4939236111111111 0.4939236111111111 0.4939236111111111 0.4939236111111111 0.4930555555555556 0.4930555555555556 0.4921875 0.4904513888888889 0.4670138888888889 0.4409722222222222 0.4079861111111111 0.3715277777777778 0.3237847222222222 0.2942708333333333 0.2395833333333333 0.2222222222222222 0.21875 0.21788194444444445 0.21788194444444445 0.21788194444444445 0.2152777777777778 0.21354166666666666 0.21180555555555555 0.2074652777777778 0.2013888888888889 0.19618055555555555 0.1918402777777778 0.1857638888888889 0.1675347222222222 0.1423611111111111 0.1310763888888889 0.1267361111111111,0.8402777777777778 0.8263888888888888 0.7835648148148149 0.7523148148148149 0.7222222222222222 0.6898148148148149 0.6180555555555556 0.5960648148148149 0.5752314814814814 0.5555555555555556 0.5405092592592593 0.5092592592592593 0.4965277777777778 0.4884259259259259 0.4814814814814815 0.4768518518518519 0.4768518518518519 0.4768518518518519 0.4768518518518519 0.4768518518518519 0.4768518518518519 0.4675925925925926 0.4583333333333334 0.4537037037037037 0.4444444444444444 0.3923611111111112 0.3611111111111112 0.3287037037037037 0.30092592592592593 0.27083333333333337 0.25462962962962965 0.2314814814814815 0.22685185185185186 0.22685185185185186 0.2256944444444444 0.2256944444444444 0.2256944444444444 0.2245370370370371 0.22337962962962965 0.2210648148148148 0.21759259259259256 0.2129629629629629 0.2106481481481481 0.2060185185185185 0.20254629629629628 0.1898148148148148 0.17129629629629628 0.1620370370370371 0.15740740740740744,16.199999999982538 36.19999999998254 56.19999999998254 76.19999999998255 96.19999999998255 116.19999999998255 136.19999999998254 156.19999999998254 176.19999999998254 196.19999999998254 216.19999999998254 236.19999999998254 256.19999999998254 276.19999999998254 296.1999999999825 316.1999999999825 336.1999999999825 356.19999999998254 376.19999999998254 396.19999999998254 416.19999999998254 436.19999999998254 456.19999999998254 476.19999999998254 496.19999999998254 516.1999999999825 536.1999999999825 556.1999999999825 576.1999999999825 596.1999999999825 616.1999999999825 636.1999999999825 656.1999999999825 676.1999999999825 696.1999999999824 716.1999999999824 736.1999999999824 756.1999999999824 776.1999999999824 796.1999999999824 816.1999999999824 836.1999999999824 856.1999999999824 876.1999999999824 896.1999999999824 916.1999999999823 936.1999999999823 956.1999999999823 976.1999999999823
cb_06,30.0,enc_trial,stim,response,Fine Arts students,1171.600000023842,enc_trial,1.0,30.0,s_sh_14_2,student_shared,fold-b,printer,6.0,competing,far,paired,s_sh_14_2.jpg,,student-b1,STEM students,Fine Arts students,sub-40,1.0,1.0,1.0,0.0,0.4973958333333333 0.4973958333333333 0.4991319444444444 0.5008680555555556 0.5060763888888888 0.5243055555555556 0.53125 0.5364583333333334 0.5381944444444444 0.5381944444444444 0.5338541666666666 0.5295138888888888 0.5243055555555556 0.5208333333333334 0.5173611111111112 0.5104166666666666 0.5069444444444444 0.5034722222222222 0.5 0.4939236111111111 0.4678819444444444 0.4461805555555556 0.4123263888888889 0.3697916666666667 0.328125 0.2543402777777778 0.2326388888888889 0.2144097222222222 0.20572916666666666 0.20572916666666666 0.2092013888888889 0.22135416666666666 0.25 0.296875 0.3567708333333333 0.4921875 0.5598958333333334 0.6154513888888888 0.65625 0.6840277777777778 0.7057291666666666 0.7057291666666666 0.7057291666666666 0.7057291666666666 0.7074652777777778 0.7213541666666666 0.7222222222222222 0.7239583333333334 0.7300347222222222 0.7378472222222222 0.7890625 0.8133680555555556 0.8315972222222222 0.8472222222222222 0.8524305555555556,0.8194444444444444 0.8159722222222222 0.806712962962963 0.7939814814814815 0.7743055555555556 0.6979166666666667 0.662037037037037 0.6273148148148149 0.5949074074074074 0.5648148148148149 0.5104166666666667 0.4861111111111112 0.4606481481481482 0.4398148148148148 0.4224537037037037 0.39814814814814814 0.3888888888888888 0.3796296296296297 0.3680555555555556 0.3564814814814815 0.3298611111111112 0.3194444444444444 0.3055555555555556 0.2870370370370371 0.2685185185185185 0.21990740740740744 0.20370370370370366 0.1909722222222222 0.1840277777777778 0.1840277777777778 0.17592592592592593 0.17129629629629628 0.1655092592592593 0.15740740740740744 0.1527777777777778 0.14814814814814814 0.14814814814814814 0.1527777777777778 0.15740740740740744 0.16319444444444442 0.16666666666666666 0.16666666666666666 0.16666666666666666 0.16666666666666666 0.16666666666666666 0.17361111111111116 0.17592592592592593 0.17592592592592593 0.1782407407407407 0.1782407407407407 0.1782407407407407 0.1782407407407407 0.1782407407407407 0.1782407407407407 0.17592592592592593,17.200000000011638 37.20000000001164 57.20000000001164 77.20000000001166 97.20000000001166 117.20000000001166 137.2000000000117 157.2000000000117 177.20000000001167 197.20000000001167 217.20000000001167 237.20000000001167 257.2000000000117 277.2000000000117 297.2000000000117 317.2000000000117 337.2000000000117 357.2000000000117 377.2000000000117 397.2000000000117 417.2000000000117 437.2000000000117 457.2000000000117 477.2000000000117 497.20000000001176 517.2000000000119 537.2000000000119 557.2000000000119 577.2000000000118 597.2000000000118 617.2000000000118 637.2000000000118 657.2000000000118 677.2000000000118 697.2000000000118 717.2000000000118 737.2000000000118 757.2000000000118 777.2000000000118 797.2000000000118 817.2000000000118 837.2000000000118 857.2000000000118 877.2000000000118 897.2000000000118 917.2000000000118 937.2000000000118 957.2000000000118 977.2000000000121 997.2000000000121 1017.2000000000121 1037.200000000012 1057.200000000012 1077.200000000012 1097.200000000012
cb_06,31.0,enc_trial,stim,response,Fine Arts students,1013.3999999523219,enc_trial,1.0,31.0,s_sh_20_2,student_shared,fold-c,tape,6.0,competing,close,paired,s_sh_20_2.jpg,,student-b1,STEM students,Fine Arts students,sub-40,1.0,1.0,1.0,1.0,0.5 0.5008680555555556 0.5052083333333334 0.5121527777777778 0.5164930555555556 0.5164930555555556 0.5164930555555556 0.5147569444444444 0.5112847222222222 0.5078125 0.5026041666666666 0.5008680555555556 0.5008680555555556 0.4982638888888889 0.4939236111111111 0.4791666666666667 0.4626736111111111 0.4435763888888889 0.4236111111111111 0.4053819444444444 0.3828125 0.3784722222222222 0.3784722222222222 0.3784722222222222 0.3784722222222222 0.3611111111111111 0.3420138888888889 0.3211805555555556 0.3020833333333333 0.2960069444444444 0.2986111111111111 0.3550347222222222 0.4322916666666667 0.5303819444444444 0.625 0.7682291666666666 0.8185763888888888 0.8524305555555556 0.8706597222222222 0.8810763888888888 0.8828125 0.8871527777777778 0.8897569444444444 0.8923611111111112 0.8923611111111112 0.8993055555555556 0.90625 0.9131944444444444 0.9157986111111112 0.9175347222222222,0.818287037037037 0.8055555555555556 0.7731481481481481 0.6956018518518519 0.6365740740740741 0.5289351851851851 0.4930555555555556 0.4502314814814815 0.4259259259259259 0.4120370370370371 0.39583333333333337 0.3935185185185185 0.3935185185185185 0.3888888888888888 0.3865740740740741 0.3773148148148148 0.3692129629629629 0.3564814814814815 0.34259259259259256 0.3287037037037037 0.2986111111111112 0.2847222222222222 0.2731481481481481 0.2615740740740741 0.25115740740740744 0.2256944444444444 0.21875 0.21643518518518529 0.21412037037037035 0.2129629629629629 0.2094907407407407 0.1944444444444444 0.18287037037037035 0.17129629629629628 0.16666666666666666 0.16666666666666666 0.16782407407407407 0.1689814814814815 0.17129629629629628 0.17129629629629628 0.17129629629629628 0.17129629629629628 0.17129629629629628 0.17129629629629628 0.17129629629629628 0.1689814814814815 0.16666666666666666 0.16666666666666666 0.1655092592592593 0.1655092592592593,0.0 20.0 40.0 60.0 80.0 100.0 120.0 140.0 160.0 180.0 200.0 220.0 240.0 260.0 280.0 300.0 320.0 340.0 360.0 380.0 400.0 420.0 440.0 460.0 480.0 500.0 520.0 540.0 560.0 580.0 600.0 620.0 640.0 660.0 680.0 700.0 720.0 740.0 760.0 780.0 800.0 820.0 840.0 860.0 880.0 900.0 920.0 940.0 960.0 980.0
cb_06,32.0,enc_trial,stim,response,Fine Arts students,1003.7999999999884,enc_trial,1.0,32.0,s_a_06_2,student_art,fold-d,pastels,6.0,unique,far,paired,s_a_06_2.jpg,art,student-b1,STEM students,Fine Arts students,sub-40,1.0,1.0,1.0,1.0,0.5 0.5 0.5 0.5 0.5 0.4973958333333333 0.4913194444444444 0.4887152777777778 0.4861111111111111 0.4826388888888889 0.4756944444444444 0.4739583333333333 0.4730902777777778 0.4730902777777778 0.4730902777777778 0.4730902777777778 0.4730902777777778 0.46875 0.4618055555555556 0.4479166666666667 0.4279513888888889 0.3845486111111111 0.3671875 0.3550347222222222 0.3506944444444444 0.3498263888888889 0.3793402777777778 0.4253472222222222 0.4887152777777778 0.5607638888888888 0.6302083333333334 0.7395833333333334 0.7604166666666666 0.7734375 0.78125 0.7821180555555556 0.7907986111111112 0.7960069444444444 0.8020833333333334 0.8081597222222222 0.8133680555555556 0.8376736111111112 0.8611111111111112 0.8819444444444444 0.8949652777777778,0.8252314814814815 0.8113425925925926 0.7777777777777778 0.7268518518518519 0.6631944444444444 0.599537037037037 0.5 0.4710648148148148 0.4502314814814815 0.4351851851851852 0.4120370370370371 0.4085648148148148 0.4074074074074073 0.4074074074074073 0.4074074074074073 0.4074074074074073 0.4074074074074073 0.4016203703703704 0.3912037037037037 0.3784722222222222 0.3622685185185185 0.3287037037037037 0.31365740740740744 0.30092592592592593 0.29166666666666663 0.2835648148148148 0.26041666666666663 0.25 0.2395833333333333 0.2314814814814815 0.22685185185185186 0.2256944444444444 0.2222222222222222 0.2210648148148148 0.21875 0.21875 0.21643518518518529 0.2152777777777778 0.2129629629629629 0.2129629629629629 0.2094907407407407 0.20370370370370366 0.1967592592592593 0.18865740740740744 0.1840277777777778,66.59999999997672 86.59999999997672 106.59999999997672 126.59999999997672 146.59999999997672 166.59999999997672 186.59999999997672 206.59999999997672 226.59999999997672 246.59999999997672 266.5999999999767 286.5999999999767 306.5999999999767 326.5999999999767 346.59999999997666 366.59999999997666 386.59999999997666 406.59999999997666 426.59999999997666 446.59999999997666 466.59999999997666 486.59999999997666 506.59999999997666 526.5999999999766 546.5999999999766 566.5999999999767 586.5999999999767 606.5999999999767 626.5999999999767 646.5999999999767 666.5999999999767 686.5999999999767 706.5999999999768 726.5999999999768 746.5999999999768 766.5999999999768 786.5999999999768 806.5999999999768 826.5999999999768 846.5999999999768 866.5999999999768 886.5999999999768 906.5999999999768 926.5999999999768 946.5999999999768
cb_06,33.0,enc_trial,stim,response,STEM students,998.899999976158,enc_trial,1.0,33.0,s_sh_18_1,student_shared,fold-c,wall calendar,6.0,competing,close,paired,s_sh_18_1.jpg,,student-b1,STEM students,Fine Arts students,sub-40,1.0,1.0,1.0,1.0,0.5043402777777778 0.5130208333333334 0.5251736111111112 0.5416666666666666 0.5555555555555556 0.578125 0.5789930555555556 0.5789930555555556 0.5755208333333334 0.5711805555555556 0.5607638888888888 0.5607638888888888 0.5607638888888888 0.5607638888888888 0.5607638888888888 0.5607638888888888 0.5607638888888888 0.5607638888888888 0.5598958333333334 0.5555555555555556 0.5347222222222222 0.5086805555555556 0.4756944444444444 0.4409722222222222 0.4071180555555556 0.3767361111111111 0.3767361111111111 0.3767361111111111 0.3767361111111111 0.3767361111111111 0.3628472222222222 0.3472222222222222 0.3246527777777778 0.2994791666666667 0.2725694444444444 0.2300347222222222 0.2170138888888889 0.2065972222222222 0.19791666666666666 0.1909722222222222 0.1848958333333333 0.18055555555555555 0.17274305555555555 0.16666666666666666 0.16319444444444445 0.1545138888888889 0.1501736111111111 0.1423611111111111 0.1362847222222222 0.13541666666666666,0.8194444444444444 0.7974537037037037 0.7581018518518519 0.7025462962962963 0.6388888888888888 0.4976851851851852 0.4583333333333334 0.4282407407407407 0.3935185185185185 0.3842592592592593 0.3564814814814815 0.3564814814814815 0.3564814814814815 0.3564814814814815 0.3564814814814815 0.3564814814814815 0.3564814814814815 0.3564814814814815 0.35416666666666663 0.34837962962962965 0.3287037037037037 0.31018518518518523 0.29166666666666663 0.27083333333333337 0.25115740740740744 0.2303240740740741 0.2303240740740741 0.2303240740740741 0.2303240740740741 0.2303240740740741 0.21990740740740744 0.2118055555555556 0.2048611111111112 0.20254629629629628 0.19907407407407407 0.1898148148148148 0.18518518518518529 0.1782407407407407 0.17129629629629628 0.16666666666666666 0.1620370370370371 0.1597222222222222 0.15509259259259256 0.15162037037037035 0.14930555555555558 0.1435185185185185 0.14120370370370372 0.1342592592592593 0.1284722222222222 0.1284722222222222,0.0 20.0 40.0 60.0 80.0 100.0 120.0 140.0 160.0 180.0 200.0 220.0 240.0 260.0 280.0 300.0 320.0 340.0 360.0 380.0 400.0 420.0 440.0 460.0 480.0 500.0 520.0 540.0 560.0 580.0 600.0 620.0 640.0 660.0 680.0 700.0 720.0 740.0 760.0 780.0 800.0 820.0 840.0 860.0 880.0 900.0 920.0 940.0 960.0 980.0
cb_06,34.0,enc_trial,stim,response,STEM students,950.9000000238302,enc_trial,1.0,34.0,s_sh_02_1,student_shared,fold-a-single,eraser,6.0,competing,,single,s_sh_02_1.jpg,,student-b1,STEM students,Fine Arts students,sub-40,1.0,,1.0,,0.5208333333333334 0.5243055555555556 0.5277777777777778 0.53125 0.5321180555555556 0.5321180555555556 0.5321180555555556 0.5321180555555556 0.5321180555555556 0.53125 0.5303819444444444 0.5295138888888888 0.5286458333333334 0.5269097222222222 0.5251736111111112 0.5208333333333334 0.5190972222222222 0.5164930555555556 0.5121527777777778 0.5060763888888888 0.4921875 0.4835069444444444 0.4730902777777778 0.4618055555555556 0.4409722222222222 0.3602430555555556 0.3220486111111111 0.3003472222222222 0.28125 0.2743055555555556 0.2604166666666667 0.2578125 0.2534722222222222 0.2482638888888889 0.24479166666666666 0.23524305555555555 0.22743055555555555 0.2204861111111111 0.2152777777777778 0.2074652777777778 0.1970486111111111 0.1909722222222222 0.1840277777777778 0.1779513888888889 0.17274305555555555 0.1605902777777778 0.1597222222222222,0.7175925925925926 0.6875 0.6608796296296297 0.6400462962962963 0.6226851851851851 0.5983796296296297 0.5960648148148149 0.5891203703703703 0.5856481481481481 0.5787037037037037 0.556712962962963 0.5462962962962963 0.5347222222222222 0.5231481481481481 0.5092592592592593 0.4861111111111112 0.4768518518518519 0.4664351851851852 0.4548611111111112 0.4432870370370371 0.4131944444444444 0.3969907407407407 0.3761574074074073 0.3553240740740741 0.33333333333333337 0.28240740740740744 0.2673611111111112 0.2592592592592593 0.2523148148148148 0.25 0.2442129629629629 0.2430555555555556 0.2407407407407407 0.2372685185185185 0.2361111111111112 0.2349537037037037 0.2349537037037037 0.23263888888888884 0.2314814814814815 0.2280092592592593 0.2210648148148148 0.21412037037037035 0.207175925925926 0.19907407407407407 0.1909722222222222 0.17129629629629628 0.1689814814814815,0.0 20.0 40.0 60.0 80.0 100.0 120.0 140.0 160.0 180.0 200.0 220.0 240.0 260.0 280.0 300.0 320.0 340.0 360.0 380.0 400.0 420.0 440.0 460.0 480.0 500.0 520.0 540.0 560.0 580.0 600.0 620.0 640.0 660.0 680.0 700.0 720.0 740.0 760.0 780.0 800.0 820.0 840.0 860.0 880.0 900.0 920.0
cb_06,35.0,enc_trial,stim,response,STEM students,1009.3000000238536,enc_trial,1.0,35.0,s_s_12_1,student_stem,fold-a-single,robotic arm,6.0,unique,,single,s_s_12_1.jpg,stem,student-b1,STEM students,Fine Arts students,sub-40,1.0,,1.0,,0.5069444444444444 0.5112847222222222 0.5234375 0.5295138888888888 0.5355902777777778 0.546875 0.5494791666666666 0.5503472222222222 0.5503472222222222 0.5503472222222222 0.5503472222222222 0.5503472222222222 0.5486111111111112 0.5486111111111112 0.5486111111111112 0.5477430555555556 0.5451388888888888 0.5399305555555556 0.5364583333333334 0.5347222222222222 0.5329861111111112 0.5381944444444444 0.5416666666666666 0.5451388888888888 0.5451388888888888 0.5321180555555556 0.5208333333333334 0.5008680555555556 0.4696180555555556 0.4279513888888889 0.3559027777777778 0.3263888888888889 0.3029513888888889 0.2821180555555556 0.2638888888888889 0.2482638888888889 0.22569444444444445 0.2109375 0.2005208333333333 0.1909722222222222 0.1762152777777778 0.1736111111111111 0.1701388888888889 0.1684027777777778 0.1657986111111111 0.16493055555555555,0.8263888888888888 0.806712962962963 0.7581018518518519 0.7210648148148149 0.6840277777777778 0.6203703703703703 0.5925925925925926 0.5717592592592593 0.5532407407407407 0.537037037037037 0.5231481481481481 0.505787037037037 0.5023148148148149 0.5 0.5 0.4918981481481482 0.4837962962962963 0.4722222222222222 0.4629629629629629 0.4548611111111112 0.4189814814814815 0.3900462962962963 0.3726851851851852 0.3564814814814815 0.3379629629629629 0.3055555555555556 0.2939814814814815 0.2835648148148148 0.2743055555555556 0.2627314814814815 0.2314814814814815 0.2129629629629629 0.19907407407407407 0.1875 0.17708333333333334 0.16782407407407407 0.15393518518518526 0.14814814814814814 0.1435185185185185 0.14004629629629628 0.13541666666666666 0.1342592592592593 0.1342592592592593 0.1342592592592593 0.1342592592592593 0.1342592592592593,50.10000000000582 70.10000000000582 90.10000000000582 110.10000000000582 130.10000000000582 150.10000000000582 170.10000000000582 190.10000000000585 210.10000000000585 230.10000000000585 250.10000000000585 270.1000000000058 290.1000000000058 310.1000000000058 330.1000000000058 350.1000000000058 370.1000000000058 390.1000000000058 410.1000000000058 430.1000000000058 450.1000000000058 470.1000000000058 490.1000000000058 510.1000000000058 530.1000000000058 550.1000000000058 570.1000000000057 590.1000000000057 610.1000000000057 630.1000000000057 650.1000000000057 670.1000000000057 690.1000000000058 710.1000000000058 730.1000000000058 750.1000000000058 770.1000000000058 790.1000000000058 810.1000000000058 830.1000000000058 850.1000000000058 870.1000000000058 890.1000000000058 910.1000000000058 930.1000000000058 950.1000000000058
cb_06,36.0,enc_trial,stim,response,STEM students,819.000000023836,enc_trial,1.0,36.0,s_sh_03_1,student_shared,fold-a-single,highlighter,6.0,competing,,single,s_sh_03_1.jpg,,student-b1,STEM students,Fine Arts students,sub-40,1.0,,1.0,,0.5078125 0.5104166666666666 0.5112847222222222 0.5130208333333334 0.5147569444444444 0.5147569444444444 0.5147569444444444 0.5147569444444444 0.5147569444444444 0.5147569444444444 0.515625 0.5164930555555556 0.5164930555555556 0.5164930555555556 0.5164930555555556 0.5164930555555556 0.5164930555555556 0.5164930555555556 0.5130208333333334 0.5095486111111112 0.4756944444444444 0.4470486111111111 0.4123263888888889 0.3732638888888889 0.3342013888888889 0.2795138888888889 0.2248263888888889 0.20572916666666666 0.1909722222222222 0.1796875 0.1736111111111111 0.16666666666666666 0.16493055555555555 0.1605902777777778 0.15625 0.15104166666666666 0.13975694444444445 0.1371527777777778 0.1345486111111111 0.1310763888888889 0.13020833333333334,0.8055555555555556 0.7962962962962963 0.7847222222222222 0.7673611111111112 0.7465277777777778 0.7164351851851851 0.6666666666666667 0.6446759259259259 0.6261574074074074 0.6111111111111112 0.5972222222222222 0.5740740740740741 0.5648148148148149 0.556712962962963 0.5486111111111112 0.5428240740740741 0.5335648148148149 0.5277777777777778 0.5185185185185186 0.5104166666666667 0.4594907407407407 0.4305555555555556 0.4016203703703704 0.3726851851851852 0.34375 0.3055555555555556 0.26388888888888884 0.24537037037037035 0.2303240740740741 0.21875 0.21412037037037035 0.20254629629629628 0.19907407407407407 0.1898148148148148 0.1817129629629629 0.1747685185185185 0.15625 0.14814814814814814 0.13888888888888884 0.12962962962962965 0.12731481481481474,0.0 20.0 40.0 60.0 80.0 100.0 120.0 140.0 160.0 180.0 200.0 220.0 240.0 260.0 280.0 300.0 320.0 340.0 360.0 380.0 400.0 420.0 440.0 460.0 480.0 500.0 520.0 540.0 560.0 580.0 600.0 620.0 640.0 660.0 680.0 700.0 720.0 740.0 760.0 780.0 800.0
