Current Spreadsheet,Trial Number,Display,Screen,Response Type,Response,Reaction Time,display,block,block_trial,stimulus_id,expected_goal,fold,stimulus_name,c_group,condition,within_block_dist,paired_status,stimulus_path,expected_location,block_split,respStim_1,respStim_2,sub_label,acc,both_enc_acc,assoc_stim1_acc,assoc_stim2_acc,x_pos,y_pos,time_trajectories
cb_10,1.0,enc_trial,stim,response,STEM students,1951.5000000178845,enc_trial,1.0,1.0,s_sh_04_1,student_shared,fold-c-single,laptop stand,10.0,competing,,single,s_sh_04_1.jpg,,student-b1,STEM students,Fine Arts students,sub-101,1.0,,1.0,,0.5048828125 0.5048828125 0.5048828125 0.5048828125 0.5048828125 0.5048828125 0.5048828125 0.5048828125 0.5048828125 0.5048828125 0.5048828125 0.5048828125 0.5048828125 0.5048828125 0.5048828125 0.5048828125 0.5009765625 0.4931640625 0.484375 0.4697265625 0.4375 0.4267578125 0.419921875 0.419921875 0.419921875 0.419921875 0.419921875 0.419921875 0.419921875 0.4228515625 0.4287109375 0.4306640625 0.4384765625 0.4404296875 0.4453125 0.4619140625 0.47265625 0.48046875 0.484375 0.4853515625 0.4873046875 0.490234375 0.4951171875 0.4990234375 0.50390625 0.509765625 0.5234375 0.54296875 0.5654296875 0.609375 0.625 0.630859375 0.6318359375 0.6328125 0.6376953125 0.6396484375 0.6396484375 0.6396484375 0.6416015625 0.646484375 0.6591796875 0.673828125 0.69140625 0.76171875 0.7890625 0.8056640625 0.80859375 0.80859375 0.80859375 0.8095703125 0.810546875 0.810546875 0.810546875 0.783203125 0.7060546875 0.560546875 0.4013671875 0.1943359375 0.1015625 0.099609375 0.1005859375 0.1123046875 0.1279296875 0.15234375 0.1591796875 0.1640625 0.1650390625,0.828125 0.8255208333333334 0.8229166666666666 0.8177083333333334 0.81640625 0.8111979166666666 0.80859375 0.80859375 0.80859375 0.80859375 0.80859375 0.80859375 0.80859375 0.80859375 0.8072916666666666 0.7903645833333334 0.7630208333333334 0.7005208333333333 0.6080729166666667 0.48828125 0.20572916666666666 0.13020833333333334 0.0859375 0.05859375 0.04817708333333337 0.046875 0.046875 0.046875 0.04557291666666663 0.0546875 0.06380208333333337 0.06510416666666663 0.0703125 0.07161458333333337 0.07291666666666663 0.07421875 0.07421875 0.07421875 0.07421875 0.07421875 0.07421875 0.06640625 0.05859375 0.04947916666666663 0.04427083333333337 0.04427083333333337 0.046875 0.05078125 0.05598958333333337 0.07291666666666663 0.0859375 0.09114583333333336 0.09114583333333336 0.09375 0.09375 0.09375 0.09375 0.09375 0.09244791666666664 0.08854166666666663 0.08463541666666663 0.08463541666666663 0.08463541666666663 0.09895833333333336 0.10286458333333336 0.10677083333333336 0.10807291666666664 0.10807291666666664 0.109375 0.109375 0.11067708333333336 0.11067708333333336 0.11067708333333336 0.11848958333333336 0.1328125 0.16276041666666666 0.17057291666666666 0.16145833333333334 0.11979166666666664 0.11197916666666664 0.10807291666666664 0.10677083333333336 0.10416666666666664 0.10026041666666664 0.09765625 0.09635416666666664 0.09635416666666664,83.19999999999709 103.19999999999708 123.19999999999708 143.1999999999971 163.1999999999971 183.1999999999971 203.1999999999971 223.1999999999971 243.1999999999971 263.1999999999971 283.19999999999715 303.19999999999715 323.19999999999715 343.19999999999715 363.1999999999971 383.1999999999971 403.1999999999971 423.1999999999971 443.1999999999971 463.1999999999971 483.1999999999971 503.1999999999971 523.1999999999971 543.1999999999971 563.1999999999971 583.1999999999971 603.1999999999971 623.1999999999971 643.1999999999971 663.1999999999971 683.1999999999971 703.1999999999971 723.1999999999971 743.1999999999971 763.1999999999971 783.1999999999971 803.1999999999971 823.1999999999971 843.1999999999971 863.1999999999971 883.1999999999971 903.1999999999972 923.1999999999972 943.1999999999972 963.1999999999972 983.1999999999972 1003.1999999999972 1023.1999999999972 1043.1999999999969 1063.1999999999969 1083.1999999999969 1103.1999999999969 1123.1999999999969 1143.1999999999969 1163.1999999999969 1183.1999999999969 1203.1999999999969 1223.1999999999969 1243.1999999999969 1263.1999999999969 1283.1999999999969 1303.1999999999969 1323.1999999999969 1343.1999999999969 1363.1999999999969 1383.1999999999969 1403.1999999999969 1423.1999999999969 1443.1999999999969 1463.1999999999969 1483.1999999999969 1503.1999999999969 1523.1999999999969 1543.1999999999969 1563.1999999999969 1583.1999999999969 1603.1999999999969 1623.1999999999969 1643.1999999999969 1663.1999999999969 1683.1999999999969 1703.1999999999969 1723.1999999999969 1743.1999999999969 1763.1999999999969 1783.1999999999969 1803.1999999999969
cb_10,2.0,enc_trial,stim,response,STEM students,2334.1000000059576,enc_trial,1.0,2.0,s_s_15_1,student_stem,fold-c,jumper cables,10.0,unique,close,paired,s_s_15_1.jpg,stem,student-b1,STEM students,Fine Arts students,sub-101,1.0,1.0,1.0,1.0,0.4951171875 0.49609375 0.5 0.50390625 0.5087890625 0.515625 0.5185546875 0.5205078125 0.521484375 0.5224609375 0.5244140625 0.5244140625 0.5244140625 0.5244140625 0.5244140625 0.5244140625 0.5244140625 0.5244140625 0.5244140625 0.5244140625 0.5244140625 0.5244140625 0.5244140625 0.5244140625 0.5244140625 0.5244140625 0.5244140625 0.5283203125 0.537109375 0.5517578125 0.6201171875 0.662109375 0.6884765625 0.7021484375 0.708984375 0.708984375 0.708984375 0.7099609375 0.7099609375 0.7109375 0.712890625 0.71484375 0.716796875 0.71875 0.720703125 0.7216796875 0.7216796875 0.7236328125 0.7265625 0.740234375 0.751953125 0.7548828125 0.7568359375 0.7578125 0.7626953125 0.7646484375 0.7646484375 0.7646484375 0.7646484375 0.7646484375 0.7646484375 0.7626953125 0.7529296875 0.740234375 0.697265625 0.6669921875 0.642578125 0.625 0.607421875 0.6044921875 0.6044921875 0.6044921875 0.609375 0.7548828125 0.8505859375 0.921875 0.9599609375 0.966796875 0.96484375 0.9521484375 0.935546875 0.91796875 0.90234375 0.8212890625 0.681640625 0.568359375 0.455078125 0.34765625 0.203125 0.1669921875 0.1416015625 0.1318359375 0.1298828125 0.1318359375 0.1357421875 0.138671875 0.138671875 0.138671875 0.138671875 0.140625 0.14453125 0.1494140625 0.1513671875 0.150390625 0.1474609375 0.146484375,0.7825520833333334 0.76953125 0.7552083333333334 0.7434895833333333 0.7291666666666667 0.703125 0.6901041666666667 0.6796875 0.6666666666666667 0.65625 0.6380208333333333 0.6341145833333333 0.6315104166666667 0.6315104166666667 0.6276041666666667 0.6223958333333333 0.6197916666666667 0.6184895833333333 0.6184895833333333 0.6184895833333333 0.6184895833333333 0.6184895833333333 0.6184895833333333 0.6184895833333333 0.6158854166666667 0.6145833333333333 0.6067708333333333 0.58984375 0.5651041666666667 0.53125 0.41796875 0.36067708333333337 0.32161458333333337 0.29817708333333337 0.27604166666666663 0.27213541666666663 0.26692708333333337 0.26302083333333337 0.25911458333333337 0.25651041666666663 0.25130208333333337 0.24869791666666666 0.24609375 0.2434895833333333 0.24088541666666666 0.23828125 0.23697916666666666 0.2356770833333333 0.23046875 0.2109375 0.2005208333333333 0.1966145833333333 0.1953125 0.1927083333333333 0.18359375 0.1809895833333333 0.1809895833333333 0.1809895833333333 0.1809895833333333 0.1809895833333333 0.1809895833333333 0.1809895833333333 0.1809895833333333 0.18359375 0.18619791666666666 0.18619791666666666 0.18619791666666666 0.1848958333333333 0.17708333333333334 0.17708333333333334 0.17708333333333334 0.17447916666666666 0.16666666666666666 0.1171875 0.09114583333333336 0.06901041666666663 0.05598958333333337 0.0546875 0.0546875 0.05989583333333338 0.06380208333333337 0.06770833333333337 0.0703125 0.08463541666666663 0.09895833333333336 0.09895833333333336 0.08203125 0.05338541666666663 0.01822916666666663 0.014322916666666631 0.014322916666666631 0.014322916666666631 0.01692708333333337 0.02083333333333337 0.02604166666666663 0.03255208333333337 0.03776041666666663 0.04296875 0.05078125 0.05729166666666662 0.06901041666666663 0.08203125 0.10546875 0.11328125 0.1171875 0.1171875,215.8000000000029 235.8000000000029 255.8000000000029 275.8000000000029 295.80000000000285 315.80000000000285 335.80000000000285 355.8000000000029 375.8000000000029 395.8000000000029 415.8000000000029 435.8000000000029 455.8000000000029 475.8000000000029 495.8000000000029 515.8000000000029 535.8000000000029 555.8000000000029 575.8000000000029 595.8000000000029 615.8000000000029 635.8000000000029 655.8000000000029 675.8000000000029 695.8000000000029 715.8000000000029 735.8000000000029 755.8000000000029 775.8000000000029 795.8000000000029 815.8000000000029 835.8000000000029 855.8000000000029 875.8000000000029 895.8000000000029 915.8000000000028 935.8000000000028 955.8000000000028 975.8000000000028 995.8000000000028 1015.8000000000028 1035.8000000000031 1055.8000000000031 1075.8000000000031 1095.8000000000031 1115.8000000000031 1135.8000000000031 1155.8000000000031 1175.8000000000031 1195.8000000000031 1215.8000000000031 1235.8000000000031 1255.8000000000031 1275.8000000000031 1295.8000000000031 1315.8000000000031 1335.8000000000031 1355.8000000000031 1375.8000000000031 1395.8000000000031 1415.8000000000031 1435.8000000000031 1455.8000000000031 1475.8000000000031 1495.8000000000031 1515.8000000000031 1535.8000000000031 1555.8000000000031 1575.8000000000031 1595.8000000000031 1615.8000000000031 1635.8000000000031 1655.8000000000031 1675.8000000000031 1695.8000000000031 1715.8000000000031 1735.8000000000031 1755.8000000000031 1775.8000000000031 1795.8000000000031 1815.8000000000031 1835.8000000000031 1855.8000000000031 1875.8000000000031 1895.8000000000031 1915.8000000000031 1935.8000000000031 1955.8000000000031 1975.8000000000031 1995.8000000000031 2015.8000000000031 2035.8000000000031 2055.800000000003 2075.800000000003 2095.800000000003 2115.800000000003 2135.800000000003 2155.800000000003 2175.800000000003 2195.800000000003 2215.800000000003 2235.800000000003 2255.800000000003 2275.800000000003 2295.800000000003 2315.800000000003
cb_10,3.0,enc_trial,stim,response,STEM students,1862.7000000119147,enc_trial,1.0,3.0,s_sh_11_1,student_shared,fold-b,pencil case,10.0,competing,close,paired,s_sh_11_1.jpg,,student-b1,STEM students,Fine Arts students,sub-101,1.0,1.0,1.0,1.0,0.501953125 0.501953125 0.501953125 0.501953125 0.505859375 0.5078125 0.5078125 0.5078125 0.5078125 0.5078125 0.5146484375 0.515625 0.515625 0.515625 0.5166015625 0.5224609375 0.5283203125 0.533203125 0.55078125 0.5517578125 0.5537109375 0.5576171875 0.5634765625 0.578125 0.583984375 0.615234375 0.623046875 0.6259765625 0.6259765625 0.6259765625 0.6259765625 0.6259765625 0.6181640625 0.61328125 0.609375 0.599609375 0.6181640625 0.6650390625 0.7294921875 0.828125 0.845703125 0.849609375 0.849609375 0.849609375 0.849609375 0.849609375 0.849609375 0.849609375 0.849609375 0.849609375 0.849609375 0.849609375 0.849609375 0.8369140625 0.818359375 0.76171875 0.6875 0.5849609375 0.4638671875 0.251953125 0.185546875 0.142578125 0.125 0.1171875 0.1171875 0.1171875 0.1171875 0.1171875 0.1171875 0.1171875 0.1171875 0.1162109375 0.1142578125 0.111328125 0.111328125 0.1103515625,0.8216145833333334 0.8111979166666666 0.7916666666666666 0.7786458333333334 0.7356770833333333 0.6145833333333333 0.5546875 0.4921875 0.4557291666666666 0.44270833333333337 0.3971354166666666 0.3932291666666666 0.3932291666666666 0.3932291666666666 0.3932291666666666 0.3932291666666666 0.3932291666666666 0.3932291666666666 0.3932291666666666 0.3932291666666666 0.3932291666666666 0.39453125 0.39453125 0.3984375 0.3984375 0.4140625 0.41927083333333337 0.421875 0.421875 0.421875 0.421875 0.421875 0.41927083333333337 0.4127604166666666 0.40364583333333337 0.32421875 0.29166666666666663 0.25390625 0.2265625 0.2044270833333333 0.2005208333333333 0.2005208333333333 0.2005208333333333 0.2005208333333333 0.19921875 0.19921875 0.19921875 0.19921875 0.19791666666666666 0.1953125 0.1953125 0.1953125 0.1927083333333333 0.1927083333333333 0.19140625 0.18229166666666666 0.16927083333333334 0.15104166666666666 0.1328125 0.09375 0.078125 0.06119791666666662 0.0546875 0.05078125 0.05078125 0.05078125 0.05078125 0.05338541666666663 0.05859375 0.07421875 0.08203125 0.09114583333333336 0.1015625 0.11197916666666664 0.11328125 0.11328125,331.6000000000058 351.6000000000058 371.6000000000058 391.6000000000058 411.6000000000058 431.6000000000058 451.6000000000058 471.6000000000058 491.6000000000058 511.6000000000058 531.6000000000058 551.6000000000058 571.6000000000057 591.6000000000057 611.6000000000057 631.6000000000057 651.6000000000057 671.6000000000057 691.6000000000058 711.6000000000058 731.6000000000058 751.6000000000058 771.6000000000058 791.6000000000058 811.6000000000058 831.6000000000058 851.6000000000058 871.6000000000058 891.6000000000058 911.6000000000058 931.6000000000058 951.6000000000058 971.6000000000058 991.6000000000058 1011.6000000000058 1031.6000000000058 1051.6000000000058 1071.6000000000058 1091.6000000000058 1111.6000000000058 1131.6000000000058 1151.6000000000058 1171.6000000000058 1191.6000000000058 1211.6000000000058 1231.6000000000058 1251.6000000000058 1271.6000000000058 1291.6000000000058 1311.6000000000058 1331.6000000000058 1351.6000000000058 1371.6000000000058 1391.6000000000058 1411.6000000000058 1431.6000000000058 1451.6000000000058 1471.6000000000058 1491.6000000000058 1511.6000000000058 1531.6000000000058 1551.6000000000058 1571.6000000000058 1591.6000000000058 1611.6000000000058 1631.6000000000058 1651.6000000000058 1671.6000000000058 1691.6000000000058 1711.6000000000058 1731.6000000000058 1751.6000000000058 1771.6000000000058 1791.6000000000058 1811.6000000000056 1831.6000000000056
cb_10,4.0,enc_trial,stim,response,Fine Arts students,1306.4000000119267,enc_trial,1.0,4.0,s_a_12_1,student_art,fold-c,saxophone,10.0,unique,close,paired,s_a_12_1.jpg,art,student-b1,STEM students,Fine Arts students,sub-101,1.0,1.0,1.0,1.0,0.4990234375 0.4990234375 0.5 0.5029296875 0.5068359375 0.5126953125 0.5166015625 0.51953125 0.5205078125 0.5205078125 0.521484375 0.521484375 0.521484375 0.521484375 0.521484375 0.521484375 0.521484375 0.521484375 0.521484375 0.521484375 0.521484375 0.521484375 0.5205078125 0.5205078125 0.5205078125 0.517578125 0.5146484375 0.51171875 0.509765625 0.5078125 0.5068359375 0.5068359375 0.513671875 0.521484375 0.548828125 0.576171875 0.638671875 0.6728515625 0.6962890625 0.712890625 0.720703125 0.73046875 0.744140625 0.7587890625 0.7724609375 0.7744140625 0.7744140625 0.77734375 0.79296875 0.8251953125 0.8349609375 0.841796875 0.8447265625 0.845703125 0.849609375 0.849609375 0.8505859375 0.8525390625 0.8564453125 0.8779296875 0.8818359375,0.8255208333333334 0.8255208333333334 0.8216145833333334 0.8125 0.8046875 0.7903645833333334 0.7825520833333334 0.7786458333333334 0.77734375 0.7747395833333334 0.7721354166666666 0.7721354166666666 0.7708333333333334 0.7708333333333334 0.7708333333333334 0.7708333333333334 0.76953125 0.76953125 0.7682291666666666 0.7682291666666666 0.7669270833333334 0.765625 0.7643229166666666 0.7643229166666666 0.7630208333333334 0.7578125 0.7526041666666666 0.7486979166666667 0.7434895833333333 0.73828125 0.7200520833333333 0.7005208333333333 0.6770833333333333 0.6549479166666667 0.5989583333333333 0.5572916666666667 0.4830729166666666 0.44270833333333337 0.4088541666666666 0.3697916666666666 0.34635416666666663 0.31640625 0.28645833333333337 0.26171875 0.23828125 0.2356770833333333 0.23307291666666666 0.22526041666666666 0.203125 0.17578125 0.16927083333333334 0.16536458333333334 0.1640625 0.16145833333333334 0.15755208333333334 0.15625 0.15494791666666666 0.14713541666666666 0.13671875 0.10026041666666664 0.09635416666666664,32.70000000001164 52.70000000001164 72.70000000001164 92.70000000001164 112.70000000001164 132.70000000001164 152.7000000000116 172.70000000001164 192.70000000001164 212.70000000001164 232.70000000001164 252.70000000001164 272.70000000001164 292.70000000001164 312.70000000001164 332.70000000001164 352.7000000000116 372.7000000000117 392.7000000000117 412.7000000000117 432.7000000000117 452.7000000000117 472.7000000000117 492.7000000000117 512.7000000000116 532.7000000000116 552.7000000000116 572.7000000000116 592.7000000000116 612.7000000000116 632.7000000000116 652.7000000000116 672.7000000000116 692.7000000000116 712.7000000000116 732.7000000000116 752.7000000000116 772.7000000000116 792.7000000000116 812.7000000000116 832.7000000000116 852.7000000000116 872.7000000000116 892.7000000000116 912.7000000000116 932.7000000000116 952.7000000000116 972.7000000000116 992.7000000000116 1012.7000000000116 1032.7000000000116 1052.7000000000116 1072.7000000000116 1092.7000000000116 1112.7000000000116 1132.7000000000114 1152.7000000000114 1172.7000000000114 1192.7000000000114 1212.7000000000114 1232.7000000000114
cb_10,5.0,enc_trial,stim,response,STEM students,1602.9000000059605,enc_trial,1.0,5.0,s_s_15_2,student_stem,fold-c,jumper cables,10.0,unique,close,paired,s_s_15_2.jpg,stem,student-b1,STEM students,Fine Arts students,sub-101,1.0,1.0,1.0,1.0,0.498046875 0.4921875 0.4765625 0.447265625 0.4072265625 0.2783203125 0.2353515625 0.212890625 0.2080078125 0.20703125 0.2060546875 0.2041015625 0.2001953125 0.197265625 0.193359375 0.181640625 0.177734375 0.173828125 0.171875 0.1689453125 0.1611328125 0.1572265625 0.15234375 0.1494140625 0.1474609375 0.142578125 0.140625 0.138671875 0.13671875 0.1357421875,0.828125 0.8203125 0.8020833333333334 0.7669270833333334 0.70703125 0.49609375 0.4296875 0.3971354166666666 0.38020833333333337 0.3697916666666666 0.34635416666666663 0.33333333333333337 0.31770833333333337 0.30338541666666663 0.2890625 0.2578125 0.2473958333333333 0.2356770833333333 0.23046875 0.2265625 0.2122395833333333 0.20703125 0.20182291666666666 0.19791666666666666 0.1966145833333333 0.19140625 0.1888020833333333 0.18619791666666666 0.1848958333333333 0.18359375,994.7000000000116 1014.7000000000116 1034.7000000000116 1054.7000000000116 1074.7000000000116 1094.7000000000116 1114.7000000000116 1134.7000000000114 1154.7000000000114 1174.7000000000114 1194.7000000000114 1214.7000000000114 1234.7000000000114 1254.7000000000114 1274.7000000000114 1294.7000000000114 1314.7000000000114 1334.7000000000114 1354.7000000000114 1374.7000000000116 1394.7000000000116 1414.7000000000116 1434.7000000000116 1454.7000000000116 1474.7000000000116 1494.7000000000116 1514.7000000000116 1534.7000000000116 1554.7000000000116 1574.7000000000116
cb_10,6.0,enc_trial,stim,response,STEM students,1898.500000023836,enc_trial,1.0,6.0,s_s_19_1,student_stem,fold-c,circuit board,10.0,unique,close,paired,s_s_19_1.jpg,stem,student-b1,STEM students,Fine Arts students,sub-101,1.0,1.0,1.0,1.0,0.4970703125 0.4970703125 0.49609375 0.4951171875 0.4921875 0.486328125 0.484375 0.4814453125 0.4794921875 0.474609375 0.462890625 0.4482421875 0.4384765625 0.4306640625 0.421875 0.4140625 0.4091796875 0.40625 0.40234375 0.396484375 0.3720703125 0.3583984375 0.33203125 0.318359375 0.30859375 0.2890625 0.28125 0.2724609375 0.2626953125 0.2431640625 0.23046875 0.216796875 0.201171875 0.1904296875 0.171875 0.1181640625 0.0830078125 0.0361328125 0.0244140625 0.013671875 0.013671875 0.013671875 0.013671875 0.013671875 0.013671875 0.013671875 0.0146484375 0.0146484375 0.0244140625 0.0576171875 0.08203125 0.095703125 0.0986328125 0.0986328125 0.0986328125 0.0986328125 0.0986328125 0.099609375 0.1025390625,0.84375 0.84375 0.8385416666666666 0.8307291666666666 0.8177083333333334 0.7747395833333334 0.7526041666666666 0.7291666666666667 0.7044270833333333 0.6783854166666667 0.62109375 0.57421875 0.5455729166666667 0.5208333333333333 0.4947916666666666 0.4661458333333334 0.4544270833333334 0.44140625 0.4296875 0.4127604166666666 0.3671875 0.34505208333333337 0.29817708333333337 0.27473958333333337 0.2578125 0.22916666666666666 0.2200520833333333 0.21354166666666666 0.20572916666666666 0.19140625 0.18229166666666666 0.17447916666666666 0.16796875 0.1640625 0.16015625 0.15364583333333334 0.15234375 0.14973958333333334 0.14713541666666666 0.14583333333333334 0.14583333333333334 0.14583333333333334 0.14583333333333334 0.14583333333333334 0.14583333333333334 0.14583333333333334 0.14583333333333334 0.14583333333333334 0.1484375 0.15234375 0.15234375 0.15494791666666666 0.15625 0.15625 0.15625 0.15625 0.15625 0.15625 0.15755208333333334,711.3999999999942 731.3999999999942 751.3999999999942 771.3999999999942 791.3999999999942 811.3999999999942 831.3999999999942 851.3999999999942 871.3999999999942 891.3999999999942 911.3999999999942 931.3999999999942 951.3999999999942 971.3999999999942 991.3999999999942 1011.3999999999942 1031.3999999999942 1051.3999999999942 1071.3999999999942 1091.3999999999942 1111.3999999999942 1131.3999999999942 1151.3999999999942 1171.3999999999942 1191.3999999999942 1211.3999999999942 1231.3999999999942 1251.3999999999942 1271.3999999999942 1291.3999999999942 1311.3999999999942 1331.3999999999942 1351.3999999999942 1371.3999999999942 1391.3999999999942 1411.3999999999942 1431.3999999999942 1451.3999999999942 1471.3999999999942 1491.3999999999942 1511.3999999999942 1531.3999999999942 1551.3999999999942 1571.3999999999942 1591.3999999999942 1611.3999999999942 1631.3999999999942 1651.3999999999942 1671.3999999999942 1691.3999999999942 1711.3999999999942 1731.3999999999942 1751.3999999999942 1771.3999999999942 1791.3999999999942 1811.3999999999944 1831.3999999999944 1851.3999999999944 1871.3999999999944
cb_10,7.0,enc_trial,stim,response,Fine Arts students,1418.1000000000058,enc_trial,1.0,7.0,s_sh_11_2,student_shared,fold-b,pencil case,10.0,competing,close,paired,s_sh_11_2.jpg,,student-b1,STEM students,Fine Arts students,sub-101,1.0,1.0,1.0,1.0,0.4970703125 0.4990234375 0.501953125 0.5068359375 0.513671875 0.54296875 0.591796875 0.62890625 0.6572265625 0.6826171875 0.7216796875 0.736328125 0.7509765625 0.7578125 0.765625 0.7880859375 0.8037109375 0.814453125 0.8291015625 0.833984375 0.8447265625 0.8505859375 0.85546875 0.8564453125,0.8268229166666666 0.8255208333333334 0.8216145833333334 0.8098958333333334 0.7890625 0.6861979166666667 0.54296875 0.4505208333333334 0.38802083333333337 0.33203125 0.27473958333333337 0.265625 0.25651041666666663 0.25520833333333337 0.24869791666666666 0.23697916666666666 0.2265625 0.2200520833333333 0.20963541666666666 0.20182291666666666 0.171875 0.15755208333333334 0.14973958333333334 0.14713541666666666,778.8999999999942 798.8999999999942 818.8999999999942 838.8999999999942 858.8999999999942 878.8999999999942 898.8999999999942 918.8999999999942 938.8999999999942 958.8999999999942 978.8999999999942 998.8999999999942 1018.8999999999942 1038.8999999999942 1058.8999999999942 1078.8999999999942 1098.8999999999942 1118.8999999999942 1138.8999999999942 1158.8999999999942 1178.8999999999942 1198.8999999999942 1218.8999999999942 1238.8999999999942
cb_10,8.0,enc_trial,stim,response,Fine Arts students,1294.600000000035,enc_trial,1.0,8.0,s_a_16_2,student_art,fold-b,piano,10.0,unique,far,paired,s_a_16_2.jpg,art,student-b1,STEM students,Fine Arts students,sub-101,1.0,1.0,1.0,1.0,0.4931640625 0.482421875 0.470703125 0.4638671875 0.4501953125 0.4462890625 0.4638671875 0.5 0.548828125 0.615234375 0.748046875 0.7939453125 0.8134765625 0.8173828125 0.818359375 0.818359375 0.818359375,0.8203125 0.76953125 0.70703125 0.6653645833333333 0.5364583333333333 0.4596354166666666 0.3515625 0.31510416666666663 0.29296875 0.265625 0.21354166666666666 0.18359375 0.16536458333333334 0.16145833333333334 0.15885416666666666 0.15755208333333334 0.15625,829.5 849.5 869.5 889.5 909.5 929.5 949.5 969.5 989.5 1009.5 1029.5 1049.5 1069.5 1089.5 1109.5 1129.5 1149.5
cb_10,9.0,enc_trial,stim,response,STEM students,1856.3000000000175,enc_trial,1.0,9.0,s_sh_18_1,student_shared,fold-c-single,wall calendar,10.0,competing,,single,s_sh_18_1.jpg,,student-b1,STEM students,Fine Arts students,sub-101,1.0,,1.0,,0.498046875 0.4951171875 0.4892578125 0.4873046875 0.482421875 0.474609375 0.4716796875 0.46484375 0.4580078125 0.4453125 0.423828125 0.41015625 0.396484375 0.3818359375 0.37890625 0.3740234375 0.3720703125 0.3701171875 0.3701171875 0.3701171875 0.3701171875 0.3701171875 0.3759765625 0.3935546875 0.4521484375 0.462890625 0.4638671875 0.4638671875 0.4638671875 0.4287109375 0.3701171875 0.2841796875 0.1943359375 0.123046875 0.0810546875 0.0810546875 0.0810546875 0.0810546875 0.0810546875 0.0810546875 0.0810546875 0.0810546875 0.0810546875 0.08203125 0.083984375 0.0859375 0.0888671875 0.095703125 0.099609375 0.103515625 0.107421875 0.109375,0.8151041666666666 0.8125 0.80078125 0.7955729166666666 0.78515625 0.7643229166666666 0.7513020833333334 0.7252604166666667 0.68359375 0.5716145833333333 0.44270833333333337 0.37239583333333337 0.30859375 0.23697916666666666 0.21744791666666666 0.17447916666666666 0.1484375 0.12890625 0.11979166666666664 0.11848958333333336 0.11848958333333336 0.11848958333333336 0.12369791666666664 0.14192708333333334 0.2083333333333333 0.22135416666666666 0.2239583333333333 0.2239583333333333 0.2239583333333333 0.2161458333333333 0.1888020833333333 0.14973958333333334 0.11458333333333336 0.08984375 0.07291666666666663 0.07291666666666663 0.07291666666666663 0.07291666666666663 0.07291666666666663 0.07291666666666663 0.07291666666666663 0.07291666666666663 0.07291666666666663 0.07291666666666663 0.07682291666666663 0.078125 0.08072916666666663 0.08854166666666663 0.09244791666666664 0.1015625 0.10807291666666664 0.109375,780.2000000000116 800.2000000000116 820.2000000000116 840.2000000000116 860.2000000000116 880.2000000000116 900.2000000000116 920.2000000000116 940.2000000000116 960.2000000000116 980.2000000000116 1000.2000000000116 1020.2000000000116 1040.2000000000116 1060.2000000000116 1080.2000000000116 1100.2000000000116 1120.2000000000116 1140.2000000000114 1160.2000000000114 1180.2000000000114 1200.2000000000114 1220.2000000000114 1240.2000000000114 1260.2000000000114 1280.2000000000114 1300.2000000000114 1320.2000000000114 1340.2000000000114 1360.2000000000114 1380.2000000000116 1400.2000000000116 1420.2000000000116 1440.2000000000116 1460.2000000000116 1480.2000000000116 1500.2000000000116 1520.2000000000116 1540.2000000000116 1560.2000000000116 1580.2000000000116 1600.2000000000116 1620.2000000000116 1640.2000000000116 1660.2000000000116 1680.2000000000116 1700.2000000000116 1720.2000000000116 1740.2000000000116 1760.2000000000116 1780.2000000000116 1800.2000000000116
cb_10,10.0,enc_trial,stim,response,STEM students,2438.300000000017,enc_trial,1.0,10.0,s_s_19_2,student_stem,fold-c,circuit board,10.0,unique,close,paired,s_s_19_2.jpg,stem,student-b1,STEM students,Fine Arts students,sub-101,1.0,1.0,1.0,1.0,0.5087890625 0.5087890625 0.5078125 0.4990234375 0.4755859375 0.357421875 0.2939453125 0.2392578125 0.193359375 0.1611328125 0.1494140625 0.1494140625 0.1494140625 0.1494140625 0.1494140625 0.1494140625 0.1494140625 0.1494140625 0.1494140625 0.1494140625 0.1494140625 0.1494140625 0.1494140625 0.1494140625 0.1494140625 0.1552734375 0.1826171875 0.2568359375 0.380859375 0.560546875 0.6328125 0.6328125 0.6318359375 0.6259765625 0.6005859375 0.5810546875 0.5556640625 0.521484375 0.4736328125 0.333984375 0.2138671875 0.1611328125 0.14453125 0.142578125 0.142578125 0.1435546875 0.14453125,0.8177083333333334 0.8177083333333334 0.8177083333333334 0.80078125 0.75 0.5234375 0.4127604166666666 0.31380208333333337 0.2278645833333333 0.16796875 0.14192708333333334 0.14192708333333334 0.14192708333333334 0.14192708333333334 0.140625 0.140625 0.140625 0.140625 0.140625 0.140625 0.140625 0.140625 0.140625 0.140625 0.140625 0.14322916666666666 0.1484375 0.15104166666666666 0.15104166666666666 0.15104166666666666 0.15494791666666666 0.15494791666666666 0.15494791666666666 0.15625 0.16015625 0.16276041666666666 0.16536458333333334 0.16927083333333334 0.16927083333333334 0.16536458333333334 0.14453125 0.13411458333333334 0.13020833333333334 0.13020833333333334 0.13020833333333334 0.13020833333333334 0.13020833333333334,1377.3000000000175 1397.3000000000175 1417.3000000000175 1437.3000000000175 1457.3000000000175 1477.3000000000175 1497.3000000000175 1517.3000000000175 1537.3000000000175 1557.3000000000175 1577.3000000000175 1597.3000000000175 1617.3000000000175 1637.3000000000175 1657.3000000000175 1677.3000000000175 1697.3000000000175 1717.3000000000175 1737.3000000000175 1757.3000000000175 1777.3000000000175 1797.3000000000175 1817.3000000000175 1837.3000000000175 1857.3000000000175 1877.3000000000175 1897.3000000000175 1917.3000000000175 1937.3000000000175 1957.3000000000175 1977.3000000000175 1997.3000000000175 2017.3000000000175 2037.3000000000175 2057.3000000000175 2077.3000000000175 2097.3000000000175 2117.3000000000175 2137.3000000000175 2157.3000000000175 2177.3000000000175 2197.3000000000175 2217.3000000000175 2237.3000000000175 2257.300000000017 2277.300000000017 2297.300000000017
cb_10,11.0,enc_trial,stim,response,Fine Arts students,1182.300000011921,enc_trial,1.0,11.0,s_a_12_2,student_art,fold-c,saxophone,10.0,unique,close,paired,s_a_12_2.jpg,art,student-b1,STEM students,Fine Arts students,sub-101,1.0,1.0,1.0,1.0,0.50390625 0.541015625 0.572265625 0.6767578125 0.8525390625 0.9423828125 0.9892578125 0.9892578125 0.98046875 0.9697265625 0.9423828125 0.931640625 0.9248046875 0.921875 0.921875 0.921875 0.921875 0.919921875 0.9150390625 0.9111328125 0.9072265625 0.9052734375 0.9052734375 0.904296875,0.8216145833333334 0.7877604166666666 0.7565104166666666 0.6536458333333333 0.4661458333333334 0.35416666666666663 0.24609375 0.234375 0.2200520833333333 0.2044270833333333 0.17057291666666666 0.15755208333333334 0.14973958333333334 0.14713541666666666 0.14713541666666666 0.14713541666666666 0.14713541666666666 0.14713541666666666 0.14713541666666666 0.14713541666666666 0.14713541666666666 0.14713541666666666 0.14713541666666666 0.14713541666666666,630.5 650.5 670.5 690.5 710.5 730.5 750.5 770.5 790.5 810.5 830.5 850.5 870.5 890.5 910.5 930.5 950.5 970.5 990.5 1010.5 1030.5 1050.5 1070.5 1090.5
cb_10,12.0,enc_trial,stim,response,STEM students,1587.7000000119147,enc_trial,1.0,12.0,s_sh_16_1,student_shared,fold-a,stapler,10.0,competing,far,paired,s_sh_16_1.jpg,,student-b1,STEM students,Fine Arts students,sub-101,1.0,1.0,1.0,0.0,0.498046875 0.484375 0.4697265625 0.4482421875 0.416015625 0.3251953125 0.2783203125 0.2412109375 0.21484375 0.2001953125 0.1904296875 0.1904296875 0.1904296875 0.1904296875 0.1904296875 0.1904296875 0.1904296875 0.1904296875 0.1904296875 0.1904296875 0.1904296875 0.1904296875 0.1904296875 0.1904296875 0.19140625 0.19140625 0.1923828125 0.1923828125 0.1923828125 0.1923828125 0.1923828125 0.189453125 0.18359375 0.1748046875 0.15625 0.1474609375 0.140625 0.1376953125 0.1357421875 0.1328125,0.81640625 0.78515625 0.7486979166666667 0.6888020833333333 0.59375 0.33854166666666663 0.2122395833333333 0.12239583333333336 0.05989583333333338 0.02864583333333337 0.014322916666666631 0.014322916666666631 0.014322916666666631 0.01692708333333337 0.02083333333333337 0.03125 0.03515625 0.03776041666666663 0.0390625 0.0390625 0.0390625 0.04296875 0.04427083333333337 0.04817708333333337 0.0546875 0.05989583333333338 0.0625 0.06380208333333337 0.06380208333333337 0.06510416666666663 0.06640625 0.06901041666666663 0.07291666666666663 0.07682291666666663 0.08333333333333337 0.08723958333333337 0.08984375 0.09244791666666664 0.09375 0.09635416666666664,680.3999999999943 700.3999999999942 720.3999999999942 740.3999999999942 760.3999999999942 780.3999999999942 800.3999999999942 820.3999999999942 840.3999999999942 860.3999999999942 880.3999999999942 900.3999999999942 920.3999999999944 940.3999999999944 960.3999999999944 980.3999999999944 1000.3999999999944 1020.3999999999944 1040.3999999999942 1060.3999999999942 1080.3999999999942 1100.3999999999942 1120.3999999999942 1140.3999999999942 1160.3999999999942 1180.3999999999942 1200.3999999999942 1220.3999999999942 1240.3999999999942 1260.3999999999942 1280.3999999999942 1300.3999999999942 1320.3999999999942 1340.3999999999942 1360.3999999999942 1380.3999999999942 1400.3999999999942 1420.3999999999942 1440.3999999999942 1460.3999999999942
cb_10,13.0,enc_trial,stim,response,STEM students,1733.7000000178814,enc_trial,1.0,13.0,s_sh_23_1,student_shared,fold-a,ballpoint pen,10.0,competing,far,paired,s_sh_23_1.jpg,,student-b1,STEM students,Fine Arts students,sub-101,1.0,1.0,0.0,1.0,0.4892578125 0.4892578125 0.4892578125 0.484375 0.4736328125 0.4208984375 0.380859375 0.3388671875 0.302734375 0.2734375 0.251953125 0.25 0.25 0.2490234375 0.2470703125 0.240234375 0.2353515625 0.2275390625 0.220703125 0.212890625 0.20703125 0.20703125 0.20703125 0.20703125 0.20703125 0.2060546875 0.2060546875 0.2060546875 0.2060546875 0.2060546875 0.2060546875 0.2060546875 0.205078125 0.2041015625 0.1865234375 0.17578125 0.162109375 0.146484375 0.138671875 0.1328125,0.8138020833333334 0.8111979166666666 0.80078125 0.7786458333333334 0.7213541666666667 0.50390625 0.35807291666666663 0.2122395833333333 0.10546875 0.03645833333333337 0.00520833333333337 0.00390625 0.00390625 0.00390625 0.00651041666666663 0.01302083333333337 0.01822916666666663 0.02473958333333337 0.03125 0.04166666666666663 0.05859375 0.0625 0.0625 0.0625 0.0625 0.06510416666666663 0.06640625 0.0703125 0.07161458333333337 0.07291666666666663 0.07421875 0.07552083333333337 0.07682291666666663 0.07942708333333337 0.09244791666666664 0.09895833333333336 0.10416666666666664 0.109375 0.11197916666666664 0.11328125,928.7000000000116 948.7000000000116 968.7000000000116 988.7000000000116 1008.7000000000116 1028.7000000000116 1048.7000000000116 1068.7000000000116 1088.7000000000116 1108.7000000000116 1128.7000000000114 1148.7000000000114 1168.7000000000114 1188.7000000000114 1208.7000000000114 1228.7000000000114 1248.7000000000114 1268.7000000000114 1288.7000000000114 1308.7000000000114 1328.7000000000114 1348.7000000000114 1368.7000000000114 1388.7000000000116 1408.7000000000116 1428.7000000000116 1448.7000000000116 1468.7000000000116 1488.7000000000116 1508.7000000000116 1528.7000000000116 1548.7000000000116 1568.7000000000116 1588.7000000000116 1608.7000000000116 1628.7000000000116 1648.7000000000116 1668.7000000000116 1688.7000000000116 1708.7000000000116
cb_10,14.0,enc_trial,stim,response,STEM students,1449.500000023836,enc_trial,1.0,14.0,s_sh_24_1,student_shared,fold-b,desk organizer,10.0,competing,close,paired,s_sh_24_1.jpg,,student-b1,STEM students,Fine Arts students,sub-101,1.0,1.0,0.0,0.0,0.5009765625 0.501953125 0.5048828125 0.5087890625 0.515625 0.53125 0.5419921875 0.5439453125 0.548828125 0.5517578125 0.552734375 0.552734375 0.552734375 0.552734375 0.552734375 0.529296875 0.4873046875 0.42578125 0.298828125 0.2138671875 0.0908203125 0.0693359375 0.0673828125 0.0673828125 0.0712890625 0.0751953125 0.0791015625 0.087890625 0.10546875 0.1591796875 0.1748046875 0.1865234375 0.19140625 0.1962890625 0.203125 0.203125 0.203125 0.203125 0.203125 0.203125 0.203125 0.203125 0.203125 0.203125 0.203125 0.203125 0.2041015625 0.2001953125 0.197265625 0.19140625 0.1875 0.1806640625 0.1689453125 0.1591796875 0.1318359375 0.119140625 0.1103515625 0.1083984375,0.8177083333333334 0.8177083333333334 0.8177083333333334 0.8177083333333334 0.8177083333333334 0.8177083333333334 0.8177083333333334 0.8177083333333334 0.81640625 0.81640625 0.81640625 0.81640625 0.81640625 0.81640625 0.8151041666666666 0.7838541666666666 0.73828125 0.6588541666666667 0.49609375 0.3671875 0.16145833333333334 0.12760416666666666 0.12369791666666664 0.12369791666666664 0.12369791666666664 0.12760416666666666 0.13151041666666666 0.13932291666666666 0.15234375 0.1848958333333333 0.19140625 0.1966145833333333 0.19921875 0.20182291666666666 0.20572916666666666 0.20703125 0.20703125 0.20703125 0.20703125 0.20703125 0.20703125 0.20703125 0.20703125 0.20703125 0.20703125 0.20703125 0.20572916666666666 0.2005208333333333 0.1927083333333333 0.18619791666666666 0.1809895833333333 0.17708333333333334 0.171875 0.16666666666666666 0.15625 0.15104166666666666 0.1484375 0.14583333333333334,266.19999999998254 286.1999999999825 306.1999999999825 326.1999999999825 346.19999999998254 366.19999999998254 386.19999999998254 406.19999999998254 426.19999999998254 446.19999999998254 466.19999999998254 486.19999999998254 506.19999999998254 526.1999999999825 546.1999999999825 566.1999999999825 586.1999999999825 606.1999999999825 626.1999999999825 646.1999999999825 666.1999999999825 686.1999999999825 706.1999999999824 726.1999999999824 746.1999999999824 766.1999999999824 786.1999999999824 806.1999999999824 826.1999999999824 846.1999999999824 866.1999999999824 886.1999999999824 906.1999999999823 926.1999999999823 946.1999999999823 966.1999999999823 986.1999999999823 1006.1999999999823 1026.1999999999823 1046.1999999999823 1066.1999999999823 1086.1999999999823 1106.1999999999823 1126.1999999999825 1146.1999999999825 1166.1999999999825 1186.1999999999825 1206.1999999999825 1226.1999999999825 1246.1999999999825 1266.1999999999825 1286.1999999999825 1306.1999999999825 1326.1999999999825 1346.1999999999825 1366.1999999999825 1386.1999999999825 1406.1999999999825
cb_10,15.0,enc_trial,stim,response,STEM students,1409.4000000000233,enc_trial,1.0,15.0,s_s_02_1,student_stem,fold-b,flask,10.0,unique,far,paired,s_s_02_1.jpg,stem,student-b1,STEM students,Fine Arts students,sub-101,1.0,1.0,1.0,1.0,0.4970703125 0.4970703125 0.49609375 0.49609375 0.4951171875 0.4951171875 0.4951171875 0.4951171875 0.4951171875 0.4951171875 0.4951171875 0.4951171875 0.4951171875 0.4951171875 0.4951171875 0.4951171875 0.4951171875 0.4951171875 0.4951171875 0.4951171875 0.4921875 0.48828125 0.4814453125 0.4716796875 0.4521484375 0.400390625 0.3798828125 0.3720703125 0.369140625 0.369140625 0.3701171875 0.3701171875 0.3701171875 0.37109375 0.3720703125 0.3720703125 0.3720703125 0.3720703125 0.3720703125 0.3720703125 0.3720703125 0.3720703125 0.3720703125 0.3720703125 0.36328125 0.3505859375 0.341796875 0.314453125 0.2529296875 0.1728515625 0.1513671875 0.140625 0.138671875 0.138671875 0.138671875 0.138671875 0.138671875 0.138671875 0.138671875 0.142578125 0.142578125 0.14453125 0.14453125 0.1455078125,0.8294270833333334 0.8294270833333334 0.8268229166666666 0.82421875 0.8229166666666666 0.8203125 0.8203125 0.8203125 0.8203125 0.8203125 0.8203125 0.8203125 0.8203125 0.8203125 0.8203125 0.8203125 0.8203125 0.8203125 0.8203125 0.8190104166666666 0.8033854166666666 0.7877604166666666 0.7578125 0.7174479166666667 0.6549479166666667 0.4505208333333334 0.35546875 0.28125 0.23828125 0.22265625 0.2200520833333333 0.2200520833333333 0.22265625 0.2265625 0.22916666666666666 0.22916666666666666 0.22916666666666666 0.22916666666666666 0.22916666666666666 0.23046875 0.23046875 0.23046875 0.23046875 0.2317708333333333 0.2317708333333333 0.2317708333333333 0.2317708333333333 0.2278645833333333 0.203125 0.15625 0.13671875 0.12369791666666664 0.12109375 0.12109375 0.12109375 0.12109375 0.12109375 0.12109375 0.12109375 0.12109375 0.12109375 0.12239583333333336 0.12239583333333336 0.12369791666666664,82.70000000001164 102.70000000001164 122.70000000001164 142.7000000000116 162.7000000000116 182.70000000001164 202.70000000001164 222.70000000001164 242.70000000001164 262.70000000001164 282.70000000001164 302.70000000001164 322.70000000001164 342.70000000001164 362.7000000000117 382.7000000000117 402.7000000000117 422.7000000000117 442.7000000000117 462.7000000000117 482.7000000000117 502.7000000000117 522.7000000000116 542.7000000000116 562.7000000000116 582.7000000000116 602.7000000000116 622.7000000000116 642.7000000000116 662.7000000000116 682.7000000000116 702.7000000000116 722.7000000000116 742.7000000000116 762.7000000000116 782.7000000000116 802.7000000000116 822.7000000000116 842.7000000000116 862.7000000000116 882.7000000000116 902.7000000000116 922.7000000000116 942.7000000000116 962.7000000000116 982.7000000000116 1002.7000000000116 1022.7000000000116 1042.7000000000116 1062.7000000000116 1082.7000000000116 1102.7000000000116 1122.7000000000116 1142.7000000000114 1162.7000000000114 1182.7000000000114 1202.7000000000114 1222.7000000000114 1242.7000000000114 1262.7000000000114 1282.7000000000114 1302.7000000000114 1322.7000000000114 1342.7000000000114
cb_10,16.0,enc_trial,stim,response,Fine Arts students,1440.8000000238535,enc_trial,1.0,16.0,s_a_14_1,student_art,fold-c,guitar pick,10.0,unique,close,paired,s_a_14_1.jpg,art,student-b1,STEM students,Fine Arts students,sub-101,1.0,1.0,1.0,0.0,0.5 0.4990234375 0.4970703125 0.4921875 0.486328125 0.470703125 0.4423828125 0.4208984375 0.40234375 0.388671875 0.37109375 0.3681640625 0.3662109375 0.3662109375 0.3662109375 0.3662109375 0.365234375 0.365234375 0.3642578125 0.3642578125 0.3642578125 0.3671875 0.384765625 0.4296875 0.517578125 0.74609375 0.8369140625 0.908203125 0.919921875 0.921875 0.921875 0.921875 0.921875 0.921875 0.921875 0.921875 0.921875 0.921875 0.921875 0.9208984375 0.919921875 0.916015625 0.9140625 0.9130859375 0.912109375,0.8385416666666666 0.8359375 0.8307291666666666 0.81640625 0.7955729166666666 0.7434895833333333 0.6471354166666667 0.57421875 0.5052083333333333 0.44140625 0.36067708333333337 0.34765625 0.34505208333333337 0.34505208333333337 0.34505208333333337 0.34635416666666663 0.34895833333333337 0.35026041666666663 0.3515625 0.35286458333333337 0.35546875 0.35677083333333337 0.35677083333333337 0.35677083333333337 0.33723958333333337 0.25651041666666663 0.22265625 0.19401041666666666 0.1875 0.18619791666666666 0.18619791666666666 0.1848958333333333 0.1848958333333333 0.18229166666666666 0.1809895833333333 0.1796875 0.17838541666666666 0.17708333333333334 0.17708333333333334 0.17708333333333334 0.17578125 0.17447916666666666 0.171875 0.171875 0.17057291666666666,514.3000000000175 534.3000000000175 554.3000000000175 574.3000000000175 594.3000000000175 614.3000000000175 634.3000000000175 654.3000000000175 674.3000000000175 694.3000000000176 714.3000000000176 734.3000000000176 754.3000000000176 774.3000000000176 794.3000000000176 814.3000000000176 834.3000000000176 854.3000000000176 874.3000000000176 894.3000000000176 914.3000000000177 934.3000000000177 954.3000000000177 974.3000000000177 994.3000000000177 1014.3000000000177 1034.3000000000177 1054.3000000000177 1074.3000000000177 1094.3000000000177 1114.3000000000177 1134.3000000000175 1154.3000000000175 1174.3000000000175 1194.3000000000175 1214.3000000000175 1234.3000000000175 1254.3000000000175 1274.3000000000175 1294.3000000000175 1314.3000000000175 1334.3000000000175 1354.3000000000175 1374.3000000000175 1394.3000000000175
cb_10,17.0,enc_trial,stim,response,STEM students,2950.300000000017,enc_trial,1.0,17.0,s_sh_08_1,student_shared,fold-c-single,post-its,10.0,competing,,single,s_sh_08_1.jpg,,student-b1,STEM students,Fine Arts students,sub-101,1.0,,1.0,,0.49609375 0.5107421875 0.5107421875 0.5107421875 0.513671875 0.515625 0.515625 0.515625 0.515625 0.515625 0.515625 0.515625 0.515625 0.515625 0.515625 0.515625 0.515625 0.515625 0.515625 0.515625 0.515625 0.515625 0.515625 0.515625 0.515625 0.515625 0.515625 0.515625 0.515625 0.515625 0.4833984375 0.4462890625 0.419921875 0.37109375 0.330078125 0.3291015625 0.3291015625 0.3291015625 0.3291015625 0.3291015625 0.3291015625 0.328125 0.32421875 0.3173828125 0.3037109375 0.2958984375 0.287109375 0.275390625 0.2646484375 0.2412109375 0.2353515625 0.23046875 0.2255859375 0.2216796875 0.212890625 0.2099609375 0.2080078125 0.20703125 0.2041015625 0.2021484375 0.2001953125 0.1953125 0.193359375 0.1904296875 0.1865234375 0.185546875 0.1845703125 0.1845703125 0.18359375 0.18359375 0.18359375 0.18359375 0.18359375 0.18359375 0.18359375 0.1806640625 0.1767578125 0.1767578125 0.173828125 0.173828125 0.173828125 0.173828125 0.173828125 0.173828125 0.173828125 0.173828125 0.173828125 0.173828125 0.173828125 0.173828125 0.173828125 0.173828125 0.173828125 0.173828125 0.173828125 0.173828125 0.173828125 0.173828125 0.173828125 0.1748046875 0.1748046875 0.17578125 0.1767578125 0.177734375 0.177734375 0.1787109375 0.1806640625 0.201171875 0.2197265625 0.255859375 0.306640625 0.3701171875 0.4521484375 0.455078125 0.455078125 0.453125 0.451171875 0.443359375 0.4345703125 0.4287109375 0.421875 0.404296875 0.3125 0.28125 0.2626953125 0.2509765625 0.23828125 0.236328125 0.236328125 0.236328125 0.236328125 0.232421875 0.2314453125 0.228515625 0.2255859375 0.2216796875 0.2109375 0.2001953125 0.1728515625 0.1640625 0.142578125 0.1162109375 0.111328125,0.8268229166666666 0.8268229166666666 0.8268229166666666 0.8268229166666666 0.8268229166666666 0.8268229166666666 0.8268229166666666 0.8268229166666666 0.8268229166666666 0.8268229166666666 0.8268229166666666 0.8268229166666666 0.8268229166666666 0.8268229166666666 0.8268229166666666 0.8268229166666666 0.8268229166666666 0.8268229166666666 0.8268229166666666 0.8268229166666666 0.8268229166666666 0.8268229166666666 0.8268229166666666 0.8268229166666666 0.8268229166666666 0.8268229166666666 0.8268229166666666 0.8268229166666666 0.8268229166666666 0.8268229166666666 0.7838541666666666 0.71875 0.6692708333333333 0.5768229166666667 0.4361979166666666 0.41145833333333337 0.3971354166666666 0.39583333333333337 0.39583333333333337 0.39583333333333337 0.39583333333333337 0.3932291666666666 0.3893229166666666 0.3815104166666666 0.35807291666666663 0.34375 0.32682291666666663 0.30598958333333337 0.28515625 0.24609375 0.2356770833333333 0.22916666666666666 0.22135416666666666 0.21484375 0.19921875 0.19401041666666666 0.19010416666666666 0.18619791666666666 0.17838541666666666 0.17317708333333334 0.16796875 0.15885416666666666 0.15234375 0.14713541666666666 0.13541666666666666 0.1328125 0.13020833333333334 0.12890625 0.12890625 0.12890625 0.12890625 0.12890625 0.12890625 0.12890625 0.12890625 0.12890625 0.13020833333333334 0.13020833333333334 0.1328125 0.1328125 0.1328125 0.1328125 0.1328125 0.1328125 0.1328125 0.1328125 0.13411458333333334 0.13411458333333334 0.13411458333333334 0.13411458333333334 0.13411458333333334 0.13411458333333334 0.13411458333333334 0.13411458333333334 0.13541666666666666 0.13541666666666666 0.13541666666666666 0.13541666666666666 0.13541666666666666 0.13671875 0.13671875 0.13671875 0.13671875 0.13802083333333334 0.13802083333333334 0.140625 0.14192708333333334 0.16276041666666666 0.1875 0.25 0.33854166666666663 0.4622395833333334 0.6653645833333333 0.6953125 0.7057291666666667 0.7109375 0.7109375 0.7109375 0.7109375 0.7109375 0.7083333333333333 0.69140625 0.5377604166666667 0.4296875 0.33203125 0.25260416666666663 0.1875 0.18229166666666666 0.18229166666666666 0.18229166666666666 0.18229166666666666 0.17838541666666666 0.17708333333333334 0.17447916666666666 0.171875 0.17057291666666666 0.16666666666666666 0.1640625 0.15364583333333334 0.15234375 0.1484375 0.14322916666666666 0.14192708333333334,49.60000000000582 69.60000000000582 89.60000000000582 109.60000000000582 129.60000000000582 149.60000000000582 169.60000000000582 189.60000000000585 209.60000000000585 229.60000000000585 249.60000000000585 269.6000000000058 289.6000000000058 309.6000000000058 329.6000000000058 349.6000000000058 369.6000000000058 389.6000000000058 409.6000000000058 429.6000000000058 449.6000000000058 469.6000000000058 489.6000000000058 509.6000000000058 529.6000000000058 549.6000000000058 569.6000000000057 589.6000000000057 609.6000000000057 629.6000000000057 649.6000000000057 669.6000000000057 689.6000000000058 709.6000000000058 729.6000000000058 749.6000000000058 769.6000000000058 789.6000000000058 809.6000000000058 829.6000000000058 849.6000000000058 869.6000000000058 889.6000000000058 909.6000000000058 929.6000000000058 949.6000000000058 969.6000000000058 989.6000000000058 1009.6000000000058 1029.6000000000058 1049.6000000000058 1069.6000000000058 1089.6000000000058 1109.6000000000058 1129.6000000000058 1149.6000000000058 1169.6000000000058 1189.6000000000058 1209.6000000000058 1229.6000000000058 1249.6000000000058 1269.6000000000058 1289.6000000000058 1309.6000000000058 1329.6000000000058 1349.6000000000058 1369.6000000000058 1389.6000000000058 1409.6000000000058 1429.6000000000058 1449.6000000000058 1469.6000000000058 1489.6000000000058 1509.6000000000058 1529.6000000000058 1549.6000000000058 1569.6000000000058 1589.6000000000058 1609.6000000000058 1629.6000000000058 1649.6000000000058 1669.6000000000058 1689.6000000000058 1709.6000000000058 1729.6000000000058 1749.6000000000058 1769.6000000000058 1789.6000000000058 1809.6000000000056 1829.6000000000056 1849.6000000000056 1869.6000000000056 1889.6000000000056 1909.6000000000056 1929.6000000000056 1949.6000000000056 1969.6000000000056 1989.6000000000056 2009.6000000000056 2029.6000000000056 2049.6000000000063 2069.6000000000063 2089.6000000000063 2109.6000000000063 2129.6000000000063 2149.6000000000063 2169.6000000000063 2189.6000000000063 2209.6000000000063 2229.6000000000063 2249.6000000000063 2269.6000000000063 2289.6000000000063 2309.6000000000063 2329.6000000000063 2349.6000000000063 2369.6000000000063 2389.6000000000063 2409.6000000000063 2429.6000000000063 2449.6000000000063 2469.6000000000063 2489.6000000000063 2509.6000000000063 2529.6000000000063 2549.6000000000063 2569.6000000000063 2589.6000000000063 2609.6000000000063 2629.6000000000063 2649.6000000000063 2669.6000000000063 2689.6000000000063 2709.6000000000063 2729.6000000000063 2749.6000000000063 2769.6000000000063 2789.6000000000063 2809.6000000000063 2829.6000000000063 2849.6000000000063 2869.6000000000063 2889.6000000000063
cb_10,18.0,enc_trial,stim,response,Fine Arts students,1259.3000000000175,enc_trial,1.0,18.0,s_a_17_1,student_art,fold-b,microphone,10.0,unique,far,paired,s_a_17_1.jpg,art,student-b1,STEM students,Fine Arts students,sub-101,1.0,1.0,1.0,0.0,0.498046875 0.498046875 0.498046875 0.51953125 0.57421875 0.75390625 0.8662109375 0.8955078125 0.9033203125 0.904296875 0.904296875 0.904296875 0.9033203125 0.9033203125 0.90234375 0.90234375 0.90234375 0.90234375 0.90234375 0.900390625 0.8984375 0.896484375 0.8955078125 0.89453125,0.8268229166666666 0.80859375 0.77734375 0.7161458333333333 0.61328125 0.37109375 0.2578125 0.23697916666666666 0.23046875 0.22916666666666666 0.2278645833333333 0.2265625 0.2239583333333333 0.22265625 0.22265625 0.22265625 0.22265625 0.22265625 0.22265625 0.22135416666666666 0.2200520833333333 0.21744791666666666 0.2161458333333333 0.2122395833333333,778.8000000000177 798.8000000000177 818.8000000000177 838.8000000000177 858.8000000000177 878.8000000000177 898.8000000000177 918.8000000000177 938.8000000000177 958.8000000000177 978.8000000000177 998.8000000000177 1018.8000000000177 1038.8000000000177 1058.8000000000177 1078.8000000000177 1098.8000000000177 1118.8000000000177 1138.8000000000175 1158.8000000000175 1178.8000000000175 1198.8000000000175 1218.8000000000175 1238.8000000000175
cb_10,19.0,enc_trial,stim,response,Fine Arts students,1289.600000023842,enc_trial,1.0,19.0,s_a_14_2,student_art,fold-c,guitar pick,10.0,unique,close,paired,s_a_14_2.jpg,art,student-b1,STEM students,Fine Arts students,sub-101,1.0,1.0,1.0,0.0,0.4951171875 0.48828125 0.47265625 0.4482421875 0.435546875 0.443359375 0.5380859375 0.6142578125 0.6884765625 0.7431640625 0.77734375 0.7802734375 0.7802734375 0.783203125 0.7880859375 0.8046875 0.82421875 0.833984375 0.8447265625 0.8515625 0.8544921875 0.85546875 0.85546875 0.8564453125 0.8583984375 0.865234375,0.8177083333333334 0.8033854166666666 0.74609375 0.66015625 0.5690104166666667 0.4609375 0.33854166666666663 0.29296875 0.26432291666666663 0.25260416666666663 0.24088541666666666 0.2395833333333333 0.23828125 0.22916666666666666 0.2109375 0.16927083333333334 0.1328125 0.12239583333333336 0.11588541666666664 0.11328125 0.11197916666666664 0.11197916666666664 0.11197916666666664 0.11197916666666664 0.11197916666666664 0.11197916666666664,745.8999999999942 765.8999999999942 785.8999999999942 805.8999999999942 825.8999999999942 845.8999999999942 865.8999999999942 885.8999999999942 905.8999999999942 925.8999999999942 945.8999999999942 965.8999999999942 985.8999999999942 1005.8999999999942 1025.8999999999942 1045.8999999999942 1065.8999999999942 1085.8999999999942 1105.8999999999942 1125.8999999999942 1145.8999999999942 1165.8999999999942 1185.8999999999942 1205.8999999999942 1225.8999999999942 1245.8999999999942
cb_10,20.0,enc_trial,stim,response,Fine Arts students,2430.800000011921,enc_trial,1.0,20.0,s_sh_24_2,student_shared,fold-b,desk organizer,10.0,competing,close,paired,s_sh_24_2.jpg,,student-b1,STEM students,Fine Arts students,sub-101,1.0,1.0,0.0,0.0,0.4951171875 0.4921875 0.4873046875 0.478515625 0.4609375 0.435546875 0.455078125 0.51953125 0.5908203125 0.6552734375 0.71484375 0.716796875 0.7177734375 0.7177734375 0.7177734375 0.7177734375 0.7177734375 0.7177734375 0.7177734375 0.7177734375 0.72265625 0.7294921875 0.734375 0.7373046875 0.740234375 0.740234375 0.728515625 0.712890625 0.6513671875 0.423828125 0.2861328125 0.173828125 0.1259765625 0.1259765625 0.126953125 0.130859375 0.1357421875 0.140625 0.1474609375 0.1689453125 0.1875 0.2138671875 0.248046875 0.2919921875 0.3857421875 0.6123046875 0.7265625 0.8095703125 0.83984375 0.845703125 0.845703125 0.84375 0.833984375 0.82421875 0.79296875 0.7685546875 0.763671875 0.7626953125 0.7626953125 0.7626953125 0.7646484375 0.7685546875 0.7763671875 0.7939453125 0.7978515625 0.80078125 0.8017578125 0.8017578125 0.8017578125 0.8017578125 0.8017578125 0.8017578125 0.8017578125 0.802734375 0.806640625 0.8232421875 0.8603515625 0.908203125 0.9482421875 0.9482421875 0.9482421875 0.9462890625 0.94140625 0.9345703125 0.931640625 0.9296875 0.9287109375 0.927734375 0.923828125 0.9228515625 0.9208984375 0.919921875 0.91796875 0.9169921875,0.8177083333333334 0.8098958333333334 0.7942708333333334 0.76171875 0.7057291666666667 0.5026041666666667 0.3736979166666666 0.23697916666666666 0.12890625 0.08072916666666663 0.07161458333333337 0.07552083333333337 0.07682291666666663 0.078125 0.08072916666666663 0.08072916666666663 0.08072916666666663 0.08072916666666663 0.08072916666666663 0.08203125 0.09114583333333336 0.10286458333333336 0.10807291666666664 0.11588541666666664 0.12369791666666664 0.15234375 0.1640625 0.16927083333333334 0.1809895833333333 0.18359375 0.15494791666666666 0.11848958333333336 0.09114583333333336 0.08854166666666663 0.0859375 0.08463541666666663 0.08463541666666663 0.08463541666666663 0.08463541666666663 0.0859375 0.09505208333333336 0.10416666666666664 0.11458333333333336 0.12890625 0.15234375 0.16796875 0.16796875 0.16015625 0.15755208333333334 0.15755208333333334 0.15755208333333334 0.15885416666666666 0.16276041666666666 0.16536458333333334 0.17447916666666666 0.1809895833333333 0.1809895833333333 0.1809895833333333 0.18229166666666666 0.1875 0.1927083333333333 0.1966145833333333 0.2044270833333333 0.2122395833333333 0.21484375 0.21744791666666666 0.21875 0.22135416666666666 0.22135416666666666 0.22135416666666666 0.22135416666666666 0.22135416666666666 0.22135416666666666 0.22135416666666666 0.22135416666666666 0.22135416666666666 0.20963541666666666 0.19401041666666666 0.1796875 0.1796875 0.1796875 0.1796875 0.17708333333333334 0.17317708333333334 0.17057291666666666 0.16927083333333334 0.16796875 0.16796875 0.16536458333333334 0.16536458333333334 0.16536458333333334 0.1640625 0.1640625 0.1640625,547.6000000000058 567.6000000000057 587.6000000000057 607.6000000000057 627.6000000000057 647.6000000000057 667.6000000000057 687.6000000000058 707.6000000000058 727.6000000000058 747.6000000000058 767.6000000000058 787.6000000000058 807.6000000000058 827.6000000000058 847.6000000000058 867.6000000000058 887.6000000000058 907.6000000000058 927.6000000000058 947.6000000000058 967.6000000000058 987.6000000000058 1007.6000000000058 1027.6000000000058 1047.6000000000058 1067.6000000000058 1087.6000000000058 1107.6000000000058 1127.6000000000058 1147.6000000000058 1167.6000000000058 1187.6000000000058 1207.6000000000058 1227.6000000000058 1247.6000000000058 1267.6000000000058 1287.6000000000058 1307.6000000000058 1327.6000000000058 1347.6000000000058 1367.6000000000058 1387.6000000000058 1407.6000000000058 1427.6000000000058 1447.6000000000058 1467.6000000000058 1487.6000000000058 1507.6000000000058 1527.6000000000058 1547.6000000000058 1567.6000000000058 1587.6000000000058 1607.6000000000058 1627.6000000000058 1647.6000000000058 1667.6000000000058 1687.6000000000058 1707.6000000000058 1727.6000000000058 1747.6000000000058 1767.6000000000058 1787.6000000000058 1807.6000000000056 1827.6000000000056 1847.6000000000056 1867.6000000000056 1887.6000000000056 1907.6000000000056 1927.6000000000056 1947.6000000000056 1967.6000000000056 1987.6000000000056 2007.6000000000056 2027.6000000000056 2047.6000000000056 2067.6000000000063 2087.6000000000063 2107.6000000000063 2127.6000000000063 2147.6000000000063 2167.6000000000063 2187.6000000000063 2207.6000000000063 2227.6000000000063 2247.6000000000063 2267.6000000000063 2287.6000000000063 2307.6000000000063 2327.6000000000063 2347.6000000000063 2367.6000000000063 2387.6000000000063 2407.6000000000063
cb_10,21.0,enc_trial,stim,response,STEM students,2004.1000000059719,enc_trial,1.0,21.0,s_sh_19_1,student_shared,fold-a,portable plastic drawer,10.0,competing,far,paired,s_sh_19_1.jpg,,student-b1,STEM students,Fine Arts students,sub-101,1.0,1.0,1.0,0.0,0.49609375 0.4951171875 0.4951171875 0.4912109375 0.486328125 0.455078125 0.4228515625 0.384765625 0.3359375 0.2314453125 0.1962890625 0.1708984375 0.158203125 0.1484375 0.146484375 0.1455078125 0.14453125 0.1435546875 0.142578125 0.140625 0.138671875 0.1376953125 0.13671875 0.13671875 0.13671875 0.13671875 0.13671875 0.13671875 0.13671875 0.13671875 0.13671875 0.13671875 0.13671875 0.13671875 0.13671875 0.13671875 0.13671875 0.13671875 0.13671875 0.138671875 0.1396484375 0.140625 0.1416015625 0.1474609375 0.1513671875 0.15234375 0.154296875 0.15625 0.1572265625 0.1591796875 0.1591796875 0.1591796875 0.16015625,0.81640625 0.8151041666666666 0.8138020833333334 0.8098958333333334 0.8046875 0.765625 0.7200520833333333 0.6575520833333333 0.5716145833333333 0.3658854166666666 0.27994791666666663 0.2161458333333333 0.17578125 0.14322916666666666 0.13411458333333334 0.13151041666666666 0.12890625 0.125 0.11979166666666664 0.11197916666666664 0.10546875 0.10286458333333336 0.09765625 0.09635416666666664 0.09635416666666664 0.09635416666666664 0.09635416666666664 0.09635416666666664 0.09635416666666664 0.09635416666666664 0.09635416666666664 0.09635416666666664 0.09635416666666664 0.09635416666666664 0.09635416666666664 0.09635416666666664 0.09635416666666664 0.09635416666666664 0.09505208333333336 0.09765625 0.09895833333333336 0.1015625 0.10286458333333336 0.109375 0.11328125 0.11588541666666664 0.11848958333333336 0.12109375 0.12369791666666664 0.12630208333333334 0.12630208333333334 0.12760416666666666 0.13020833333333334,848.4000000000232 868.4000000000232 888.4000000000232 908.4000000000232 928.4000000000232 948.4000000000232 968.4000000000232 988.4000000000232 1008.4000000000232 1028.4000000000233 1048.4000000000233 1068.4000000000233 1088.4000000000233 1108.4000000000233 1128.4000000000233 1148.4000000000233 1168.4000000000233 1188.4000000000233 1208.4000000000233 1228.4000000000233 1248.4000000000233 1268.4000000000233 1288.4000000000233 1308.4000000000233 1328.4000000000233 1348.4000000000233 1368.4000000000233 1388.4000000000233 1408.4000000000233 1428.4000000000233 1448.4000000000233 1468.4000000000233 1488.4000000000233 1508.4000000000233 1528.4000000000233 1548.4000000000233 1568.4000000000233 1588.4000000000233 1608.4000000000233 1628.4000000000233 1648.4000000000233 1668.4000000000233 1688.4000000000233 1708.4000000000233 1728.4000000000233 1748.4000000000233 1768.4000000000233 1788.4000000000233 1808.4000000000235 1828.4000000000235 1848.4000000000235 1868.4000000000235 1888.4000000000235
cb_10,22.0,enc_trial,stim,response,STEM students,1342.7000000000114,enc_trial,1.0,22.0,s_sh_07_1,student_shared,fold-a,ruler,10.0,competing,far,paired,s_sh_07_1.jpg,,student-b1,STEM students,Fine Arts students,sub-101,1.0,1.0,1.0,0.0,0.4873046875 0.474609375 0.4541015625 0.421875 0.380859375 0.337890625 0.2431640625 0.208984375 0.1845703125 0.173828125 0.162109375 0.1572265625 0.15625 0.1533203125 0.1494140625 0.1416015625 0.1396484375 0.1396484375 0.1396484375 0.1396484375 0.13671875 0.134765625 0.130859375 0.126953125 0.125 0.1240234375 0.1240234375 0.1240234375 0.1240234375,0.8255208333333334 0.80078125 0.7604166666666666 0.6966145833333333 0.6184895833333333 0.52734375 0.33072916666666663 0.2473958333333333 0.17317708333333334 0.1328125 0.08072916666666663 0.06510416666666663 0.06119791666666662 0.05729166666666662 0.04817708333333337 0.03255208333333337 0.03125 0.03125 0.03125 0.03125 0.03385416666666663 0.04166666666666663 0.05338541666666663 0.07161458333333337 0.08723958333333337 0.11197916666666664 0.12239583333333336 0.12890625 0.13151041666666666,746.0 766.0 786.0 806.0 826.0 846.0 866.0 886.0 906.0 926.0 946.0 966.0 986.0 1006.0 1026.0 1046.0 1066.0 1086.0 1106.0 1126.0 1146.0 1166.0 1186.0 1206.0 1226.0 1246.0 1266.0 1286.0 1306.0
cb_10,23.0,enc_trial,stim,response,STEM students,1401.9000000238302,enc_trial,1.0,23.0,s_s_01_1,student_stem,fold-b,microscope,10.0,unique,far,paired,s_s_01_1.jpg,stem,student-b1,STEM students,Fine Arts students,sub-101,1.0,1.0,1.0,1.0,0.48828125 0.4482421875 0.4228515625 0.3623046875 0.294921875 0.2099609375 0.20703125 0.20703125 0.20703125 0.20703125 0.20703125 0.20703125 0.20703125 0.2080078125 0.208984375 0.2099609375 0.2109375 0.2109375 0.2109375 0.2109375 0.2109375 0.2109375 0.2109375 0.19921875 0.1826171875 0.12890625 0.1044921875 0.08984375 0.0849609375,0.8020833333333334 0.7200520833333333 0.6770833333333333 0.5611979166666667 0.4296875 0.26432291666666663 0.24479166666666666 0.24088541666666666 0.24088541666666666 0.23828125 0.23828125 0.23828125 0.23828125 0.23828125 0.2356770833333333 0.23046875 0.22916666666666666 0.22916666666666666 0.22916666666666666 0.22916666666666666 0.22916666666666666 0.22916666666666666 0.2265625 0.2200520833333333 0.2083333333333333 0.15364583333333334 0.12369791666666664 0.10807291666666664 0.10416666666666664,812.8999999999942 832.8999999999942 852.8999999999942 872.8999999999942 892.8999999999942 912.8999999999942 932.8999999999942 952.8999999999942 972.8999999999942 992.8999999999942 1012.8999999999942 1032.8999999999942 1052.8999999999942 1072.8999999999942 1092.8999999999942 1112.8999999999942 1132.8999999999942 1152.8999999999942 1172.8999999999942 1192.8999999999942 1212.8999999999942 1232.8999999999942 1252.8999999999942 1272.8999999999942 1292.8999999999942 1312.8999999999942 1332.8999999999942 1352.8999999999942 1372.8999999999942
cb_10,24.0,enc_trial,stim,response,Fine Arts students,1325.1000000000058,enc_trial,1.0,24.0,s_a_16_1,student_art,fold-b,piano,10.0,unique,far,paired,s_a_16_1.jpg,art,student-b1,STEM students,Fine Arts students,sub-101,1.0,1.0,1.0,1.0,0.494140625 0.494140625 0.494140625 0.494140625 0.494140625 0.494140625 0.494140625 0.494140625 0.494140625 0.494140625 0.494140625 0.494140625 0.494140625 0.494140625 0.494140625 0.494140625 0.494140625 0.494140625 0.494140625 0.494140625 0.494140625 0.494140625 0.494140625 0.494140625 0.494140625 0.439453125 0.39453125 0.3505859375 0.314453125 0.2919921875 0.3115234375 0.3388671875 0.3876953125 0.4658203125 0.654296875 0.7255859375 0.783203125 0.796875 0.8037109375 0.80859375 0.8095703125 0.8095703125 0.8095703125 0.8095703125 0.8095703125 0.810546875 0.810546875 0.810546875 0.810546875 0.810546875 0.8173828125 0.8232421875 0.8291015625 0.8349609375 0.8505859375 0.8544921875 0.8564453125 0.857421875 0.857421875,0.828125 0.828125 0.828125 0.828125 0.828125 0.828125 0.828125 0.828125 0.828125 0.828125 0.828125 0.828125 0.828125 0.828125 0.828125 0.828125 0.828125 0.828125 0.828125 0.828125 0.828125 0.828125 0.828125 0.828125 0.8255208333333334 0.7109375 0.6197916666666667 0.5182291666666667 0.41927083333333337 0.33984375 0.30989583333333337 0.30989583333333337 0.328125 0.34635416666666663 0.3671875 0.3671875 0.35807291666666663 0.3515625 0.34635416666666663 0.33984375 0.3359375 0.3359375 0.33463541666666663 0.33333333333333337 0.33333333333333337 0.33203125 0.33203125 0.33203125 0.32682291666666663 0.31770833333333337 0.28125 0.26041666666666663 0.23828125 0.2161458333333333 0.17057291666666666 0.15494791666666666 0.14453125 0.13802083333333334 0.13671875,131.39999999999418 151.39999999999418 171.39999999999418 191.39999999999415 211.39999999999415 231.39999999999415 251.39999999999415 271.3999999999942 291.3999999999942 311.3999999999942 331.3999999999942 351.3999999999942 371.3999999999942 391.3999999999942 411.3999999999942 431.3999999999942 451.3999999999942 471.3999999999942 491.3999999999942 511.3999999999942 531.3999999999942 551.3999999999942 571.3999999999943 591.3999999999943 611.3999999999943 631.3999999999943 651.3999999999943 671.3999999999943 691.3999999999942 711.3999999999942 731.3999999999942 751.3999999999942 771.3999999999942 791.3999999999942 811.3999999999942 831.3999999999942 851.3999999999942 871.3999999999942 891.3999999999942 911.3999999999942 931.3999999999942 951.3999999999942 971.3999999999942 991.3999999999942 1011.3999999999942 1031.3999999999942 1051.3999999999942 1071.3999999999942 1091.3999999999942 1111.3999999999942 1131.3999999999942 1151.3999999999942 1171.3999999999942 1191.3999999999942 1211.3999999999942 1231.3999999999942 1251.3999999999942 1271.3999999999942 1291.3999999999942
cb_10,25.0,enc_trial,stim,response,Fine Arts students,1342.3000000000175,enc_trial,1.0,25.0,s_a_15_1,student_art,fold-d-single,drum kit,10.0,unique,,single,s_a_15_1.jpg,art,student-b1,STEM students,Fine Arts students,sub-101,1.0,,1.0,,0.49609375 0.484375 0.462890625 0.4326171875 0.3974609375 0.3505859375 0.3486328125 0.373046875 0.396484375 0.419921875 0.5263671875 0.6123046875 0.69921875 0.787109375 0.841796875 0.876953125 0.880859375 0.880859375 0.880859375 0.8798828125 0.87890625 0.8779296875 0.8759765625 0.875 0.873046875 0.87109375 0.8701171875 0.869140625 0.8681640625 0.8681640625 0.8662109375 0.8662109375 0.8662109375 0.8662109375 0.8662109375 0.8662109375,0.7903645833333334 0.7721354166666666 0.7278645833333333 0.65234375 0.546875 0.29557291666666663 0.2200520833333333 0.1796875 0.17578125 0.17838541666666666 0.22526041666666666 0.25 0.26432291666666663 0.26432291666666663 0.25911458333333337 0.24609375 0.2434895833333333 0.2421875 0.24088541666666666 0.2395833333333333 0.23697916666666666 0.2356770833333333 0.23307291666666666 0.2317708333333333 0.2317708333333333 0.23046875 0.22916666666666666 0.22916666666666666 0.2265625 0.22526041666666666 0.21484375 0.20963541666666666 0.2083333333333333 0.20572916666666666 0.2005208333333333 0.19791666666666666,579.7000000000116 599.7000000000116 619.7000000000116 639.7000000000116 659.7000000000116 679.7000000000116 699.7000000000116 719.7000000000116 739.7000000000116 759.7000000000116 779.7000000000116 799.7000000000116 819.7000000000116 839.7000000000116 859.7000000000116 879.7000000000116 899.7000000000116 919.7000000000116 939.7000000000116 959.7000000000116 979.7000000000116 999.7000000000116 1019.7000000000116 1039.7000000000116 1059.7000000000116 1079.7000000000116 1099.7000000000116 1119.7000000000116 1139.7000000000114 1159.7000000000114 1179.7000000000114 1199.7000000000114 1219.7000000000114 1239.7000000000114 1259.7000000000114 1279.7000000000114
cb_10,26.0,enc_trial,stim,response,Fine Arts students,1353.2999999999886,enc_trial,1.0,26.0,s_sh_16_2,student_shared,fold-a,stapler,10.0,competing,far,paired,s_sh_16_2.jpg,,student-b1,STEM students,Fine Arts students,sub-101,1.0,1.0,1.0,0.0,0.4970703125 0.4921875 0.4755859375 0.45703125 0.443359375 0.4150390625 0.4140625 0.4296875 0.4794921875 0.5498046875 0.6826171875 0.7294921875 0.7705078125 0.7861328125 0.802734375 0.822265625 0.8251953125 0.8251953125 0.826171875 0.826171875 0.826171875 0.826171875 0.826171875 0.826171875 0.8251953125 0.8271484375 0.8271484375,0.8111979166666666 0.7981770833333334 0.7421875 0.68359375 0.61328125 0.40625 0.29166666666666663 0.19401041666666666 0.11458333333333336 0.06119791666666662 0.03385416666666663 0.03645833333333337 0.046875 0.05729166666666662 0.0703125 0.09244791666666664 0.09765625 0.09895833333333336 0.10026041666666664 0.10286458333333336 0.109375 0.11197916666666664 0.1171875 0.12630208333333334 0.13411458333333334 0.15494791666666666 0.15755208333333334,779.7999999999884 799.7999999999884 819.7999999999884 839.7999999999884 859.7999999999884 879.7999999999884 899.7999999999884 919.7999999999884 939.7999999999884 959.7999999999884 979.7999999999884 999.7999999999884 1019.7999999999884 1039.7999999999884 1059.7999999999884 1079.7999999999884 1099.7999999999884 1119.7999999999884 1139.7999999999886 1159.7999999999886 1179.7999999999886 1199.7999999999886 1219.7999999999886 1239.7999999999886 1259.7999999999886 1279.7999999999886 1299.7999999999886
cb_10,27.0,enc_trial,stim,response,STEM students,1474.0000000059665,enc_trial,1.0,27.0,s_sh_14_1,student_shared,fold-b,printer,10.0,competing,close,paired,s_sh_14_1.jpg,,student-b1,STEM students,Fine Arts students,sub-101,0.0,0.0,1.0,1.0,0.49609375 0.5068359375 0.515625 0.51953125 0.53125 0.5625 0.5732421875 0.5732421875 0.5703125 0.5595703125 0.517578125 0.4833984375 0.447265625 0.4111328125 0.388671875 0.3779296875 0.3779296875 0.375 0.365234375 0.345703125 0.2802734375 0.2431640625 0.2119140625 0.1943359375 0.1875 0.1865234375 0.1865234375 0.1865234375 0.1845703125 0.1806640625 0.177734375 0.1748046875 0.1728515625,0.8020833333333334 0.7799479166666666 0.7578125 0.7447916666666667 0.7096354166666667 0.6080729166666667 0.54296875 0.49609375 0.453125 0.41927083333333337 0.35416666666666663 0.31380208333333337 0.27213541666666663 0.2317708333333333 0.2005208333333333 0.18229166666666666 0.18229166666666666 0.18229166666666666 0.18229166666666666 0.1796875 0.16015625 0.14713541666666666 0.13932291666666666 0.13932291666666666 0.13932291666666666 0.140625 0.140625 0.14322916666666666 0.14453125 0.14713541666666666 0.14713541666666666 0.14713541666666666 0.14713541666666666,796.3000000000177 816.3000000000177 836.3000000000177 856.3000000000177 876.3000000000177 896.3000000000177 916.3000000000177 936.3000000000177 956.3000000000177 976.3000000000177 996.3000000000177 1016.3000000000177 1036.3000000000177 1056.3000000000177 1076.3000000000177 1096.3000000000177 1116.3000000000177 1136.3000000000175 1156.3000000000175 1176.3000000000175 1196.3000000000175 1216.3000000000175 1236.3000000000175 1256.3000000000175 1276.3000000000175 1296.3000000000175 1316.3000000000175 1336.3000000000175 1356.3000000000175 1376.3000000000175 1396.3000000000175 1416.3000000000175 1436.3000000000175
cb_10,28.0,enc_trial,stim,response,STEM students,1352.600000023842,enc_trial,1.0,28.0,s_s_11_1,student_stem,fold-d-single,scientific scale,10.0,unique,,single,s_s_11_1.jpg,stem,student-b1,STEM students,Fine Arts students,sub-101,1.0,,1.0,,0.494140625 0.478515625 0.439453125 0.3798828125 0.3115234375 0.1982421875 0.17578125 0.169921875 0.169921875 0.1708984375 0.1708984375 0.1708984375 0.1708984375 0.1708984375 0.1708984375 0.1708984375 0.1708984375 0.1708984375 0.1708984375 0.1708984375 0.1669921875 0.166015625 0.166015625,0.80859375 0.7825520833333334 0.7174479166666667 0.6223958333333333 0.5052083333333333 0.30208333333333337 0.24088541666666666 0.20703125 0.1927083333333333 0.1875 0.1875 0.1875 0.1875 0.18619791666666666 0.1848958333333333 0.18229166666666666 0.1796875 0.1796875 0.17578125 0.17057291666666666 0.15234375 0.14322916666666666 0.13932291666666666,844.5 864.5 884.5 904.5 924.5 944.5 964.5 984.5 1004.5 1024.5 1044.5 1064.5 1084.5 1104.5 1124.5 1144.5 1164.5 1184.5 1204.5 1224.5 1244.5 1264.5 1284.5
cb_10,29.0,enc_trial,stim,response,Fine Arts students,1406.4000000059605,enc_trial,1.0,29.0,s_sh_23_2,student_shared,fold-a,ballpoint pen,10.0,competing,far,paired,s_sh_23_2.jpg,,student-b1,STEM students,Fine Arts students,sub-101,1.0,1.0,0.0,1.0,0.50390625 0.49609375 0.470703125 0.423828125 0.3720703125 0.2763671875 0.240234375 0.21484375 0.19921875 0.1943359375 0.193359375 0.193359375 0.193359375 0.193359375 0.193359375 0.1962890625 0.2119140625 0.255859375 0.3330078125 0.443359375 0.6650390625 0.7265625 0.7578125 0.7861328125 0.7978515625 0.8095703125 0.8125 0.8125 0.8125 0.8134765625 0.822265625 0.830078125 0.833984375 0.8369140625 0.837890625 0.8388671875 0.8408203125,0.8072916666666666 0.79296875 0.734375 0.6419270833333333 0.54296875 0.36458333333333337 0.296875 0.2421875 0.20182291666666666 0.18359375 0.17057291666666666 0.16796875 0.16796875 0.16796875 0.16796875 0.16536458333333334 0.16536458333333334 0.16536458333333334 0.16536458333333334 0.1848958333333333 0.2005208333333333 0.2005208333333333 0.2005208333333333 0.19010416666666666 0.18229166666666666 0.171875 0.17057291666666666 0.17057291666666666 0.17057291666666666 0.17057291666666666 0.16666666666666666 0.16276041666666666 0.16015625 0.15885416666666666 0.15885416666666666 0.15885416666666666 0.15755208333333334,662.3999999999943 682.3999999999943 702.3999999999942 722.3999999999942 742.3999999999942 762.3999999999942 782.3999999999942 802.3999999999942 822.3999999999942 842.3999999999942 862.3999999999942 882.3999999999942 902.3999999999944 922.3999999999944 942.3999999999944 962.3999999999944 982.3999999999944 1002.3999999999944 1022.3999999999944 1042.3999999999942 1062.3999999999942 1082.3999999999942 1102.3999999999942 1122.3999999999942 1142.3999999999942 1162.3999999999942 1182.3999999999942 1202.3999999999942 1222.3999999999942 1242.3999999999942 1262.3999999999942 1282.3999999999942 1302.3999999999942 1322.3999999999942 1342.3999999999942 1362.3999999999942 1382.3999999999942
cb_10,30.0,enc_trial,stim,response,STEM students,2338.300000000017,enc_trial,1.0,30.0,s_sh_14_2,student_shared,fold-b,printer,10.0,competing,close,paired,s_sh_14_2.jpg,,student-b1,STEM students,Fine Arts students,sub-101,0.0,0.0,1.0,1.0,0.4873046875 0.4697265625 0.4521484375 0.4306640625 0.4013671875 0.3486328125 0.33984375 0.33203125 0.3232421875 0.298828125 0.2080078125 0.16796875 0.1435546875 0.1328125 0.1328125 0.1328125 0.1357421875 0.1396484375 0.146484375 0.158203125 0.1767578125 0.1845703125 0.1865234375 0.189453125 0.189453125 0.189453125 0.189453125 0.189453125 0.189453125 0.1884765625 0.1884765625 0.1884765625 0.1884765625 0.1884765625 0.1884765625 0.1884765625 0.1884765625 0.1884765625 0.1884765625 0.1884765625 0.1884765625 0.1884765625 0.1884765625 0.1865234375 0.1826171875 0.1796875 0.17578125 0.1708984375 0.1640625 0.1611328125,0.8138020833333334 0.7721354166666666 0.7278645833333333 0.6770833333333333 0.6015625 0.4557291666666666 0.4140625 0.38411458333333337 0.35677083333333337 0.30338541666666663 0.15494791666666666 0.10546875 0.08333333333333337 0.07682291666666663 0.07682291666666663 0.078125 0.08203125 0.08854166666666663 0.09505208333333336 0.10807291666666664 0.13932291666666666 0.16145833333333334 0.17838541666666666 0.1875 0.19140625 0.1927083333333333 0.19401041666666666 0.19401041666666666 0.19401041666666666 0.19401041666666666 0.19401041666666666 0.19401041666666666 0.19401041666666666 0.19401041666666666 0.19401041666666666 0.19401041666666666 0.19401041666666666 0.19401041666666666 0.19401041666666666 0.19401041666666666 0.19401041666666666 0.19401041666666666 0.19401041666666666 0.19401041666666666 0.19401041666666666 0.1927083333333333 0.19140625 0.19010416666666666 0.1848958333333333 0.1809895833333333,1326.6000000000058 1346.6000000000058 1366.6000000000058 1386.6000000000058 1406.6000000000058 1426.6000000000058 1446.6000000000058 1466.6000000000058 1486.6000000000058 1506.6000000000058 1526.6000000000058 1546.6000000000058 1566.6000000000058 1586.6000000000058 1606.6000000000058 1626.6000000000058 1646.6000000000058 1666.6000000000058 1686.6000000000058 1706.6000000000058 1726.6000000000058 1746.6000000000058 1766.6000000000058 1786.6000000000058 1806.6000000000056 1826.6000000000056 1846.6000000000056 1866.6000000000056 1886.6000000000056 1906.6000000000056 1926.6000000000056 1946.6000000000056 1966.6000000000056 1986.6000000000056 2006.6000000000056 2026.6000000000056 2046.6000000000056 2066.6000000000063 2086.6000000000063 2106.6000000000063 2126.6000000000063 2146.6000000000063 2166.6000000000063 2186.6000000000063 2206.6000000000063 2226.6000000000063 2246.6000000000063 2266.6000000000063 2286.6000000000063 2306.6000000000063
cb_10,31.0,enc_trial,stim,response,STEM students,1178.1000000000058,enc_trial,1.0,31.0,s_a_07_1,student_art,fold-d-single,yarn,10.0,unique,,single,s_a_07_1.jpg,art,student-b1,STEM students,Fine Arts students,sub-101,0.0,,0.0,,0.4951171875 0.4794921875 0.435546875 0.3681640625 0.29296875 0.18359375 0.1689453125 0.1689453125 0.169921875 0.169921875 0.1748046875 0.1767578125 0.177734375 0.1787109375 0.1796875 0.1796875 0.1796875 0.1806640625 0.1806640625 0.1806640625 0.1806640625 0.1806640625,0.8359375 0.8125 0.74609375 0.6354166666666667 0.5 0.27213541666666663 0.21744791666666666 0.20182291666666666 0.19791666666666666 0.19791666666666666 0.19791666666666666 0.19791666666666666 0.1966145833333333 0.1953125 0.19401041666666666 0.1927083333333333 0.1927083333333333 0.1927083333333333 0.19140625 0.1888020833333333 0.1796875 0.17708333333333334,745.7000000000116 765.7000000000116 785.7000000000116 805.7000000000116 825.7000000000116 845.7000000000116 865.7000000000116 885.7000000000116 905.7000000000116 925.7000000000116 945.7000000000116 965.7000000000116 985.7000000000116 1005.7000000000116 1025.7000000000116 1045.7000000000116 1065.7000000000116 1085.7000000000116 1105.7000000000116 1125.7000000000116 1145.7000000000114 1165.7000000000114
cb_10,32.0,enc_trial,stim,response,STEM students,1397.5000000059665,enc_trial,1.0,32.0,s_s_02_2,student_stem,fold-b,flask,10.0,unique,far,paired,s_s_02_2.jpg,stem,student-b1,STEM students,Fine Arts students,sub-101,1.0,1.0,1.0,1.0,0.4912109375 0.4931640625 0.4931640625 0.494140625 0.4951171875 0.4951171875 0.4951171875 0.4951171875 0.486328125 0.4345703125 0.314453125 0.255859375 0.23046875 0.228515625 0.2333984375 0.240234375 0.240234375 0.240234375 0.240234375 0.240234375 0.240234375 0.2392578125 0.2373046875 0.232421875 0.2109375 0.19140625 0.1728515625 0.1572265625 0.1484375 0.1455078125,0.8059895833333334 0.8033854166666666 0.8020833333333334 0.80078125 0.7981770833333334 0.7981770833333334 0.7981770833333334 0.79296875 0.7721354166666666 0.6809895833333333 0.4700520833333334 0.35416666666666663 0.27734375 0.2434895833333333 0.2200520833333333 0.19921875 0.19791666666666666 0.19791666666666666 0.19791666666666666 0.19791666666666666 0.1966145833333333 0.1953125 0.1927083333333333 0.1888020833333333 0.1640625 0.14713541666666666 0.1328125 0.125 0.12369791666666664 0.12369791666666664,762.8999999999942 782.8999999999942 802.8999999999942 822.8999999999942 842.8999999999942 862.8999999999942 882.8999999999942 902.8999999999942 922.8999999999942 942.8999999999942 962.8999999999942 982.8999999999942 1002.8999999999942 1022.8999999999942 1042.8999999999942 1062.8999999999942 1082.8999999999942 1102.8999999999942 1122.8999999999942 1142.8999999999942 1162.8999999999942 1182.8999999999942 1202.8999999999942 1222.8999999999942 1242.8999999999942 1262.8999999999942 1282.8999999999942 1302.8999999999942 1322.8999999999942 1342.8999999999942
cb_10,33.0,enc_trial,stim,response,Fine Arts students,1541.3000000000175,enc_trial,1.0,33.0,s_a_17_2,student_art,fold-b,microphone,10.0,unique,far,paired,s_a_17_2.jpg,art,student-b1,STEM students,Fine Arts students,sub-101,1.0,1.0,1.0,0.0,0.4951171875 0.4775390625 0.470703125 0.4541015625 0.4326171875 0.3984375 0.3916015625 0.3916015625 0.400390625 0.41796875 0.4716796875 0.5185546875 0.564453125 0.59765625 0.6220703125 0.630859375 0.630859375 0.630859375 0.630859375 0.630859375 0.6357421875 0.646484375 0.66796875 0.693359375 0.7392578125 0.76171875 0.771484375 0.78125 0.7861328125 0.7919921875 0.7919921875 0.7919921875 0.7919921875 0.7919921875 0.7919921875 0.7919921875 0.7919921875 0.80078125 0.80078125 0.8330078125 0.865234375 0.869140625,0.8098958333333334 0.78125 0.7682291666666666 0.7408854166666667 0.6940104166666667 0.5885416666666667 0.54296875 0.5169270833333333 0.5065104166666667 0.5026041666666667 0.5026041666666667 0.49609375 0.4856770833333334 0.47265625 0.4583333333333334 0.44140625 0.421875 0.39453125 0.3658854166666666 0.33984375 0.30598958333333337 0.29296875 0.27864583333333337 0.26432291666666663 0.23046875 0.20182291666666666 0.1848958333333333 0.16536458333333334 0.15104166666666666 0.13932291666666666 0.13932291666666666 0.13932291666666666 0.13932291666666666 0.13932291666666666 0.13932291666666666 0.13932291666666666 0.13932291666666666 0.13671875 0.13671875 0.13151041666666666 0.13151041666666666 0.13151041666666666,663.7000000000116 683.7000000000116 703.7000000000116 723.7000000000116 743.7000000000116 763.7000000000116 783.7000000000116 803.7000000000116 823.7000000000116 843.7000000000116 863.7000000000116 883.7000000000116 903.7000000000116 923.7000000000116 943.7000000000116 963.7000000000116 983.7000000000116 1003.7000000000116 1023.7000000000116 1043.7000000000116 1063.7000000000116 1083.7000000000116 1103.7000000000116 1123.7000000000116 1143.7000000000114 1163.7000000000114 1183.7000000000114 1203.7000000000114 1223.7000000000114 1243.7000000000114 1263.7000000000114 1283.7000000000114 1303.7000000000114 1323.7000000000114 1343.7000000000114 1363.7000000000114 1383.7000000000116 1403.7000000000116 1423.7000000000116 1443.7000000000116 1463.7000000000116 1483.7000000000116
cb_10,34.0,enc_trial,stim,response,STEM students,1521.2000000238475,enc_trial,1.0,34.0,s_sh_22_1,student_shared,fold-c-single,hole puncher,10.0,competing,,single,s_sh_22_1.jpg,,student-b1,STEM students,Fine Arts students,sub-101,1.0,,1.0,,0.4990234375 0.494140625 0.482421875 0.4541015625 0.4150390625 0.3125 0.2587890625 0.2099609375 0.1708984375 0.150390625 0.1376953125 0.1376953125 0.1376953125 0.1376953125 0.1376953125 0.13671875 0.1357421875 0.1357421875 0.1357421875 0.1357421875 0.1357421875 0.1357421875 0.1357421875 0.1357421875 0.1357421875 0.1376953125 0.140625 0.1416015625 0.1435546875 0.1435546875 0.1435546875,0.8294270833333334 0.8203125 0.7981770833333334 0.7421875 0.66796875 0.4440104166666666 0.328125 0.2239583333333333 0.13671875 0.08854166666666663 0.06119791666666662 0.05989583333333338 0.05989583333333338 0.05989583333333338 0.05729166666666662 0.05078125 0.04817708333333337 0.04817708333333337 0.04817708333333337 0.04817708333333337 0.04817708333333337 0.04817708333333337 0.04947916666666663 0.05338541666666663 0.05989583333333338 0.08463541666666663 0.10546875 0.13802083333333334 0.16666666666666666 0.17838541666666666 0.18359375,878.2000000000116 898.2000000000116 918.2000000000116 938.2000000000116 958.2000000000116 978.2000000000116 998.2000000000116 1018.2000000000116 1038.2000000000116 1058.2000000000116 1078.2000000000116 1098.2000000000116 1118.2000000000116 1138.2000000000114 1158.2000000000114 1178.2000000000114 1198.2000000000114 1218.2000000000114 1238.2000000000114 1258.2000000000114 1278.2000000000114 1298.2000000000114 1318.2000000000114 1338.2000000000114 1358.2000000000114 1378.2000000000116 1398.2000000000116 1418.2000000000116 1438.2000000000116 1458.2000000000116 1478.2000000000116
cb_10,35.0,enc_trial,stim,response,STEM students,1154.800000011921,enc_trial,1.0,35.0,s_sh_10_1,student_shared,fold-b,scissors,10.0,competing,close,paired,s_sh_10_1.jpg,,student-b1,STEM students,Fine Arts students,sub-101,1.0,1.0,1.0,0.0,0.4921875 0.4755859375 0.439453125 0.39453125 0.302734375 0.234375 0.115234375 0.08203125 0.076171875 0.0751953125 0.0751953125 0.0751953125 0.0751953125 0.0751953125 0.0751953125 0.0751953125 0.0751953125 0.0751953125 0.076171875 0.076171875 0.078125 0.078125 0.078125 0.0791015625,0.828125 0.8059895833333334 0.7591145833333334 0.6979166666666667 0.5651041666666667 0.4674479166666666 0.27864583333333337 0.21744791666666666 0.19921875 0.1953125 0.1953125 0.19401041666666666 0.19401041666666666 0.19401041666666666 0.19401041666666666 0.19401041666666666 0.19401041666666666 0.19401041666666666 0.19010416666666666 0.19010416666666666 0.1848958333333333 0.1848958333333333 0.1848958333333333 0.18359375,647.0999999999767 667.0999999999767 687.0999999999767 707.0999999999768 727.0999999999768 747.0999999999768 767.0999999999768 787.0999999999768 807.0999999999768 827.0999999999768 847.0999999999768 867.0999999999768 887.0999999999768 907.0999999999768 927.0999999999768 947.0999999999768 967.0999999999768 987.0999999999768 1007.0999999999768 1027.0999999999767 1047.0999999999767 1067.0999999999767 1087.0999999999767 1107.0999999999767
cb_10,36.0,enc_trial,stim,response,Fine Arts students,2416.200000000012,enc_trial,1.0,36.0,s_sh_19_2,student_shared,fold-a,portable plastic drawer,10.0,competing,far,paired,s_sh_19_2.jpg,,student-b1,STEM students,Fine Arts students,sub-101,1.0,1.0,1.0,0.0,0.51171875 0.4638671875 0.41015625 0.3798828125 0.3193359375 0.201171875 0.1669921875 0.1474609375 0.1298828125 0.119140625 0.10546875 0.0986328125 0.08984375 0.0859375 0.083984375 0.0830078125 0.0830078125 0.0830078125 0.0830078125 0.0830078125 0.0830078125 0.087890625 0.09765625 0.099609375 0.103515625 0.10546875 0.1064453125 0.1064453125 0.1064453125 0.1064453125 0.1064453125 0.1064453125 0.1064453125 0.1064453125 0.1064453125 0.1064453125 0.1064453125 0.1064453125 0.107421875 0.109375 0.1103515625 0.111328125 0.1123046875 0.1123046875 0.1123046875 0.1123046875 0.1123046875 0.1123046875 0.1123046875 0.1123046875 0.1123046875 0.1123046875 0.11328125 0.1142578125 0.115234375 0.1162109375 0.1162109375 0.1162109375 0.1162109375 0.1162109375 0.1162109375 0.1201171875 0.1552734375 0.5869140625 0.6826171875 0.84765625 0.9375 0.95703125 0.953125 0.92578125 0.904296875 0.88671875 0.876953125 0.8681640625 0.8681640625 0.8681640625 0.8681640625 0.8681640625 0.8681640625 0.8681640625 0.8681640625 0.8681640625 0.8681640625 0.8681640625,0.8255208333333334 0.7838541666666666 0.7278645833333333 0.69140625 0.6067708333333333 0.4244791666666666 0.375 0.3359375 0.28385416666666663 0.24609375 0.1966145833333333 0.16927083333333334 0.13671875 0.12109375 0.109375 0.10416666666666664 0.10416666666666664 0.10416666666666664 0.10416666666666664 0.10416666666666664 0.10286458333333336 0.11067708333333336 0.12369791666666664 0.12630208333333334 0.1328125 0.13671875 0.13671875 0.13671875 0.13671875 0.13671875 0.13671875 0.13671875 0.13671875 0.13671875 0.13671875 0.13671875 0.13802083333333334 0.13932291666666666 0.140625 0.14453125 0.14713541666666666 0.15104166666666666 0.15364583333333334 0.15364583333333334 0.15364583333333334 0.15364583333333334 0.15364583333333334 0.15494791666666666 0.15494791666666666 0.15494791666666666 0.15494791666666666 0.15494791666666666 0.15494791666666666 0.15625 0.15755208333333334 0.15885416666666666 0.16015625 0.16015625 0.16015625 0.16015625 0.16015625 0.16145833333333334 0.16796875 0.26041666666666663 0.27734375 0.2890625 0.2890625 0.2890625 0.28515625 0.26953125 0.25260416666666663 0.2356770833333333 0.21875 0.19140625 0.18359375 0.1796875 0.1796875 0.1796875 0.1796875 0.1796875 0.1796875 0.1796875 0.17708333333333334 0.17578125,746.5 766.5 786.5 806.5 826.5 846.5 866.5 886.5 906.5 926.5 946.5 966.5 986.5 1006.5 1026.5 1046.5 1066.5 1086.5 1106.5 1126.5 1146.5 1166.5 1186.5 1206.5 1226.5 1246.5 1266.5 1286.5 1306.5 1326.5 1346.5 1366.5 1386.5 1406.5 1426.5 1446.5 1466.5 1486.5 1506.5 1526.5 1546.5 1566.5 1586.5 1606.5 1626.5 1646.5 1666.5 1686.5 1706.5 1726.5 1746.5 1766.5 1786.5 1806.5 1826.5 1846.5 1866.5 1886.5 1906.5 1926.5 1946.5 1966.5 1986.5 2006.5 2026.5 2046.5 2066.5 2086.5 2106.5 2126.5 2146.5 2166.5 2186.5 2206.5 2226.5 2246.5 2266.5 2286.5 2306.5 2326.5 2346.5 2366.5 2386.5 2406.5
cb_10,37.0,enc_trial,stim,response,Fine Arts students,1441.6999999999537,enc_trial,1.0,37.0,s_sh_07_2,student_shared,fold-a,ruler,10.0,competing,far,paired,s_sh_07_2.jpg,,student-b1,STEM students,Fine Arts students,sub-101,1.0,1.0,1.0,0.0,0.50390625 0.4921875 0.45703125 0.3671875 0.3154296875 0.2666015625 0.2216796875 0.212890625 0.2099609375 0.2099609375 0.2177734375 0.2333984375 0.2626953125 0.3212890625 0.3955078125 0.5029296875 0.5947265625 0.6181640625 0.6279296875 0.6298828125 0.630859375 0.634765625 0.6484375 0.673828125 0.7138671875 0.7919921875 0.802734375 0.8046875 0.8046875 0.8056640625 0.8056640625 0.8056640625 0.806640625 0.8095703125 0.8271484375 0.8408203125 0.85546875 0.861328125 0.8623046875,0.81640625 0.7981770833333334 0.7421875 0.59765625 0.5013020833333333 0.4205729166666666 0.33723958333333337 0.31640625 0.30078125 0.29036458333333337 0.27864583333333337 0.27864583333333337 0.27864583333333337 0.29166666666666663 0.3046875 0.32291666666666663 0.32291666666666663 0.32161458333333337 0.31770833333333337 0.31640625 0.31380208333333337 0.3046875 0.28776041666666663 0.27213541666666663 0.25260416666666663 0.2239583333333333 0.21875 0.21875 0.21875 0.21744791666666666 0.21484375 0.21354166666666666 0.2109375 0.2083333333333333 0.1966145833333333 0.1875 0.1796875 0.17578125 0.17578125,629.2999999999884 649.2999999999884 669.2999999999884 689.2999999999884 709.2999999999884 729.2999999999884 749.2999999999884 769.2999999999884 789.2999999999884 809.2999999999884 829.2999999999884 849.2999999999884 869.2999999999884 889.2999999999884 909.2999999999884 929.2999999999884 949.2999999999884 969.2999999999884 989.2999999999884 1009.2999999999884 1029.2999999999884 1049.2999999999884 1069.2999999999884 1089.2999999999884 1109.2999999999884 1129.2999999999886 1149.2999999999886 1169.2999999999886 1189.2999999999886 1209.2999999999886 1229.2999999999886 1249.2999999999886 1269.2999999999886 1289.2999999999886 1309.2999999999886 1329.2999999999886 1349.2999999999886 1369.2999999999886 1389.2999999999884
cb_10,38.0,enc_trial,stim,response,Fine Arts students,1292.899999999965,enc_trial,1.0,38.0,s_sh_10_2,student_shared,fold-b,scissors,10.0,competing,close,paired,s_sh_10_2.jpg,,student-b1,STEM students,Fine Arts students,sub-101,1.0,1.0,1.0,0.0,0.5048828125 0.51953125 0.5673828125 0.705078125 0.7509765625 0.875 0.9453125 0.9482421875 0.9482421875 0.9462890625 0.9404296875 0.939453125 0.939453125 0.939453125 0.939453125 0.939453125 0.9384765625 0.9326171875 0.9248046875 0.9140625 0.896484375 0.89453125,0.8125 0.7942708333333334 0.7526041666666666 0.62890625 0.5729166666666667 0.37630208333333337 0.19140625 0.16015625 0.14583333333333334 0.13932291666666666 0.13802083333333334 0.13802083333333334 0.13802083333333334 0.13802083333333334 0.13802083333333334 0.13802083333333334 0.13802083333333334 0.14192708333333334 0.14973958333333334 0.15625 0.1640625 0.1640625,812.2000000000116 832.2000000000116 852.2000000000116 872.2000000000116 892.2000000000116 912.2000000000116 932.2000000000116 952.2000000000116 972.2000000000116 992.2000000000116 1012.2000000000116 1032.2000000000116 1052.2000000000116 1072.2000000000116 1092.2000000000116 1112.2000000000116 1132.2000000000114 1152.2000000000114 1172.2000000000114 1192.2000000000114 1212.2000000000114 1232.2000000000114
cb_10,39.0,enc_trial,stim,response,STEM students,1352.4000000238302,enc_trial,1.0,39.0,s_s_01_2,student_stem,fold-b,microscope,10.0,unique,far,paired,s_s_01_2.jpg,stem,student-b1,STEM students,Fine Arts students,sub-101,1.0,1.0,1.0,1.0,0.4921875 0.47265625 0.439453125 0.4189453125 0.3662109375 0.2431640625 0.1884765625 0.1474609375 0.1298828125 0.1259765625 0.12890625 0.1328125 0.1357421875 0.1376953125 0.1396484375 0.142578125 0.1435546875 0.1435546875 0.1435546875 0.1435546875 0.1435546875 0.1435546875 0.1435546875 0.1455078125 0.146484375 0.1474609375 0.1484375 0.1484375 0.1484375 0.1494140625 0.1494140625 0.1494140625 0.1494140625 0.1494140625 0.1494140625 0.1494140625 0.1494140625,0.8190104166666666 0.7838541666666666 0.71875 0.6796875 0.578125 0.33723958333333337 0.21875 0.125 0.08072916666666663 0.07161458333333337 0.07421875 0.07682291666666663 0.08072916666666663 0.08203125 0.08333333333333337 0.08723958333333337 0.08854166666666663 0.08854166666666663 0.08854166666666663 0.08854166666666663 0.08854166666666663 0.08854166666666663 0.08984375 0.09244791666666664 0.09375 0.09505208333333336 0.09635416666666664 0.09765625 0.09765625 0.09895833333333336 0.09895833333333336 0.09895833333333336 0.1015625 0.10546875 0.11197916666666664 0.1171875 0.12109375,597.5999999999767 617.5999999999767 637.5999999999767 657.5999999999767 677.5999999999767 697.5999999999768 717.5999999999768 737.5999999999768 757.5999999999768 777.5999999999768 797.5999999999768 817.5999999999768 837.5999999999768 857.5999999999768 877.5999999999768 897.5999999999768 917.5999999999768 937.5999999999768 957.5999999999768 977.5999999999768 997.5999999999768 1017.5999999999768 1037.5999999999767 1057.5999999999767 1077.5999999999767 1097.5999999999767 1117.5999999999767 1137.5999999999767 1157.5999999999767 1177.5999999999767 1197.5999999999767 1217.5999999999767 1237.5999999999767 1257.5999999999767 1277.5999999999767 1297.5999999999767 1317.5999999999767
cb_10,40.0,enc_trial,stim,response,STEM students,1209.6999999999534,enc_trial,1.0,40.0,s_s_16_1,student_stem,fold-d-single,toolbox,10.0,unique,,single,s_s_16_1.jpg,stem,student-b1,STEM students,Fine Arts students,sub-101,1.0,,1.0,,0.4990234375 0.4990234375 0.4990234375 0.4990234375 0.4990234375 0.498046875 0.498046875 0.498046875 0.498046875 0.498046875 0.498046875 0.498046875 0.498046875 0.498046875 0.498046875 0.498046875 0.4970703125 0.49609375 0.4951171875 0.4921875 0.4755859375 0.4580078125 0.4345703125 0.3994140625 0.3193359375 0.2607421875 0.244140625 0.2216796875 0.212890625 0.212890625 0.212890625 0.212890625 0.212890625 0.212890625 0.2119140625 0.2099609375 0.20703125 0.203125 0.197265625 0.1826171875 0.173828125 0.169921875 0.1689453125,0.8255208333333334 0.8255208333333334 0.8255208333333334 0.8255208333333334 0.82421875 0.8229166666666666 0.8229166666666666 0.8229166666666666 0.8229166666666666 0.8229166666666666 0.8229166666666666 0.8229166666666666 0.8229166666666666 0.8216145833333334 0.8216145833333334 0.8203125 0.8203125 0.8177083333333334 0.81640625 0.8098958333333334 0.78125 0.74609375 0.7005208333333333 0.62890625 0.4635416666666666 0.32552083333333337 0.29036458333333337 0.24479166666666666 0.22916666666666666 0.2265625 0.2265625 0.2265625 0.2265625 0.2265625 0.2239583333333333 0.21875 0.2122395833333333 0.2044270833333333 0.1875 0.15234375 0.13932291666666666 0.13671875 0.13671875,299.19999999995343 319.19999999995343 339.19999999995343 359.19999999995343 379.19999999995343 399.19999999995343 419.19999999995343 439.19999999995343 459.19999999995343 479.19999999995343 499.19999999995343 519.1999999999534 539.1999999999534 559.1999999999534 579.1999999999534 599.1999999999534 619.1999999999534 639.1999999999534 659.1999999999534 679.1999999999534 699.1999999999533 719.1999999999533 739.1999999999533 759.1999999999533 779.1999999999533 799.1999999999533 819.1999999999533 839.1999999999533 859.1999999999533 879.1999999999533 899.1999999999533 919.1999999999533 939.1999999999533 959.1999999999533 979.1999999999533 999.1999999999533 1019.1999999999533 1039.1999999999532 1059.1999999999532 1079.1999999999532 1099.1999999999532 1119.1999999999532 1139.1999999999534
