Current Spreadsheet,Trial Number,Display,Screen,Response Type,Response,Reaction Time,display,block,block_trial,stimulus_id,expected_goal,fold,stimulus_name,c_group,condition,within_block_dist,paired_status,stimulus_path,expected_location,block_split,respStim_1,respStim_2,sub_label,acc,both_enc_acc,assoc_stim1_acc,assoc_stim2_acc,x_pos,y_pos,time_trajectories
cb_08,1.0,enc_trial,stim,response,STEM students,1163.6999999999969,enc_trial,1.0,1.0,s_s_11_1,student_stem,fold-d,scientific scale,8.0,unique,close,paired,s_s_11_1.jpg,stem,student-b1,STEM students,Fine Arts students,sub-52,1.0,1.0,1.0,1.0,0.50625 0.50625 0.50625 0.50625 0.50625 0.50625 0.50625 0.50625 0.50625 0.5076388888888889 0.5090277777777777 0.5111111111111111 0.5083333333333333 0.4895833333333333 0.4270833333333333 0.34444444444444444 0.3118055555555556 0.2902777777777778 0.28680555555555554 0.29097222222222224 0.30486111111111114 0.34097222222222223 0.3826388888888889 0.4625 0.5152777777777777 0.5215277777777778 0.5208333333333334 0.4923611111111112 0.3826388888888889 0.3 0.24375 0.2076388888888889 0.19652777777777766 0.19166666666666668 0.18958333333333333 0.18611111111111112 0.17916666666666667 0.1673611111111111 0.16180555555555556 0.15833333333333333,0.8175925925925926 0.8175925925925926 0.8175925925925926 0.8175925925925926 0.8175925925925926 0.8175925925925926 0.8175925925925926 0.8175925925925926 0.8148148148148149 0.7972222222222223 0.7712962962962963 0.7092592592592593 0.6444444444444444 0.5638888888888889 0.4342592592592592 0.3453703703703703 0.3203703703703704 0.3064814814814815 0.30092592592592593 0.29814814814814816 0.2962962962962963 0.29074074074074074 0.275 0.2361111111111112 0.20185185185185184 0.1962962962962963 0.1962962962962963 0.1907407407407408 0.19166666666666665 0.1953703703703704 0.1898148148148148 0.17685185185185182 0.1694444444444444 0.16388888888888886 0.1620370370370371 0.1592592592592592 0.15555555555555556 0.1509259259259259 0.15000000000000002 0.14814814814814814,387.8999999999942 407.8999999999942 427.8999999999942 447.8999999999942 467.8999999999942 487.8999999999942 507.8999999999942 527.8999999999942 547.8999999999942 567.8999999999943 587.8999999999943 607.8999999999943 627.8999999999943 647.8999999999943 667.8999999999943 687.8999999999942 707.8999999999942 727.8999999999942 747.8999999999942 767.8999999999942 787.8999999999942 807.8999999999942 827.8999999999942 847.8999999999942 867.8999999999942 887.8999999999942 907.8999999999942 927.8999999999942 947.8999999999942 967.8999999999942 987.8999999999942 1007.8999999999942 1027.8999999999942 1047.8999999999942 1067.8999999999942 1087.8999999999942 1107.8999999999942 1127.8999999999942 1147.8999999999942 1167.8999999999942
cb_08,2.0,enc_trial,stim,response,STEM students,1079.979999999996,enc_trial,1.0,2.0,s_s_15_1,student_stem,fold-c,jumper cables,8.0,unique,far,paired,s_s_15_1.jpg,stem,student-b1,STEM students,Fine Arts students,sub-52,1.0,1.0,1.0,1.0,0.4965277777777778 0.4854166666666666 0.4576388888888889 0.4118055555555555 0.3159722222222222 0.2576388888888889 0.1993055555555556 0.175 0.16666666666666666 0.1625 0.1625 0.1625 0.1625 0.1638888888888889 0.16666666666666666 0.1673611111111111 0.1673611111111111 0.1673611111111111 0.16597222222222222 0.16319444444444445 0.16111111111111112 0.15833333333333333,0.8333333333333334 0.8148148148148149 0.7703703703703704 0.6962962962962963 0.5435185185185185 0.4212962962962963 0.25555555555555554 0.16388888888888886 0.13148148148148153 0.1166666666666667 0.11203703703703703 0.11203703703703703 0.11296296296296293 0.1166666666666667 0.12314814814814813 0.125 0.12592592592592589 0.12685185185185188 0.12592592592592589 0.12314814814814813 0.12037037037037035 0.11759259259259258,624.2799999999988 644.2799999999988 664.2799999999988 684.2799999999988 704.2799999999988 724.2799999999988 744.2799999999988 764.2799999999988 784.2799999999988 804.2799999999988 824.2799999999988 844.2799999999988 864.2799999999988 884.2799999999988 904.2799999999988 924.2799999999988 944.2799999999988 964.2799999999988 984.2799999999988 1004.2799999999988 1024.2799999999988 1044.2799999999988
cb_08,3.0,enc_trial,stim,response,STEM students,1216.020000000004,enc_trial,1.0,3.0,s_sh_24_1,student_shared,fold-b-single,desk organizer,8.0,competing,,single,s_sh_24_1.jpg,,student-b1,STEM students,Fine Arts students,sub-52,1.0,,1.0,,0.5048611111111111 0.5041666666666667 0.5027777777777778 0.5006944444444444 0.4840277777777778 0.4590277777777778 0.4298611111111112 0.3805555555555555 0.3173611111111111 0.27152777777777776 0.22361111111111112 0.21388888888888888 0.20972222222222225 0.2083333333333333 0.2069444444444445 0.20555555555555555 0.20555555555555555 0.20555555555555555 0.20555555555555555 0.20555555555555555 0.20555555555555555 0.2048611111111111 0.2013888888888889 0.19236111111111112 0.16666666666666666 0.15347222222222226 0.1423611111111111 0.14027777777777778 0.13958333333333334,0.825925925925926 0.825925925925926 0.8240740740740741 0.8194444444444444 0.7935185185185185 0.7518518518518519 0.6962962962962963 0.5953703703703703 0.475 0.38703703703703707 0.2898148148148149 0.26388888888888884 0.25 0.24722222222222226 0.2444444444444445 0.2407407407407407 0.2379629629629629 0.2379629629629629 0.2379629629629629 0.2379629629629629 0.2379629629629629 0.2342592592592593 0.2277777777777777 0.2138888888888889 0.1787037037037037 0.16388888888888886 0.1527777777777778 0.15000000000000002 0.15000000000000002,660.6600000000035 680.6600000000035 700.6600000000035 720.6600000000035 740.6600000000035 760.6600000000035 780.6600000000035 800.6600000000035 820.6600000000035 840.6600000000035 860.6600000000035 880.6600000000035 900.6600000000035 920.6600000000036 940.6600000000036 960.6600000000036 980.6600000000036 1000.6600000000036 1020.6600000000036 1040.6600000000037 1060.6600000000037 1080.6600000000037 1100.6600000000037 1120.6600000000037 1140.6600000000035 1160.6600000000035 1180.6600000000035 1200.6600000000035 1220.6600000000035
cb_08,4.0,enc_trial,stim,response,STEM students,1315.2399999999907,enc_trial,1.0,4.0,s_sh_19_1,student_shared,fold-a,portable plastic drawer,8.0,competing,close,paired,s_sh_19_1.jpg,,student-b1,STEM students,Fine Arts students,sub-52,1.0,1.0,0.0,0.0,0.5048611111111111 0.5041666666666667 0.5027777777777778 0.5 0.4916666666666666 0.4805555555555556 0.4555555555555556 0.4354166666666667 0.4236111111111111 0.4118055555555555 0.3673611111111112 0.325 0.26875 0.25277777777777777 0.24444444444444444 0.24305555555555555 0.24027777777777776 0.23194444444444445 0.2277777777777777 0.22291666666666668 0.21319444444444444 0.20347222222222225 0.1930555555555556 0.18958333333333333 0.18541666666666667 0.18125 0.1736111111111111 0.1638888888888889 0.15416666666666667 0.14791666666666667 0.14166666666666666 0.13402777777777775 0.13055555555555556,0.8175925925925926 0.8175925925925926 0.8166666666666667 0.8138888888888889 0.8064814814814815 0.7953703703703704 0.7694444444444444 0.7398148148148148 0.7222222222222222 0.7018518518518518 0.6268518518518518 0.5490740740740739 0.45 0.4240740740740741 0.4101851851851852 0.4037037037037037 0.3944444444444445 0.3638888888888889 0.35092592592592603 0.3416666666666667 0.325 0.3064814814814815 0.2768518518518519 0.26481481481481484 0.2518518518518519 0.2435185185185185 0.2296296296296297 0.2083333333333333 0.18796296296296305 0.17592592592592593 0.16481481481481486 0.15370370370370368 0.14907407407407405,678.8399999999965 698.8399999999965 718.8399999999965 738.8399999999965 758.8399999999965 778.8399999999965 798.8399999999965 818.8399999999965 838.8399999999965 858.8399999999965 878.8399999999965 898.8399999999965 918.8399999999964 938.8399999999964 958.8399999999964 978.8399999999964 998.8399999999964 1018.8399999999964 1038.8399999999963 1058.8399999999963 1078.8399999999963 1098.8399999999963 1118.8399999999963 1138.8399999999965 1158.8399999999965 1178.8399999999965 1198.8399999999965 1218.8399999999965 1238.8399999999965 1258.8399999999965 1278.8399999999965 1298.8399999999965 1318.8399999999965
cb_08,5.0,enc_trial,stim,response,STEM students,993.3999999999942,enc_trial,1.0,5.0,s_sh_12_1,student_shared,fold-b-single,binder,8.0,competing,,single,s_sh_12_1.jpg,,student-b1,STEM students,Fine Arts students,sub-52,1.0,,0.0,,0.5090277777777777 0.5090277777777777 0.5090277777777777 0.5090277777777777 0.5034722222222222 0.4923611111111112 0.4701388888888889 0.4201388888888889 0.35694444444444445 0.3138888888888889 0.2701388888888889 0.20208333333333334 0.18125 0.16875 0.1597222222222222 0.15625 0.15555555555555556 0.15555555555555556 0.15555555555555556 0.15416666666666667 0.1527777777777778 0.15 0.14652777777777778 0.14444444444444446 0.14375 0.14305555555555555 0.1423611111111111 0.14166666666666666 0.14027777777777778 0.14027777777777778,0.8203703703703704 0.8203703703703704 0.8203703703703704 0.8203703703703704 0.8175925925925926 0.8083333333333333 0.787037037037037 0.7296296296296296 0.6509259259259259 0.587962962962963 0.5203703703703704 0.4138888888888889 0.37777777777777777 0.3537037037037037 0.3287037037037037 0.312037037037037 0.2944444444444444 0.275 0.2611111111111111 0.2490740740740741 0.2388888888888889 0.2240740740740741 0.20740740740740726 0.19907407407407407 0.19259259259259254 0.1907407407407408 0.1898148148148148 0.18611111111111112 0.18333333333333326 0.18148148148148147,406.0799999999872 426.0799999999872 446.0799999999872 466.0799999999872 486.0799999999872 506.0799999999872 526.0799999999872 546.0799999999872 566.0799999999873 586.0799999999873 606.0799999999873 626.0799999999873 646.0799999999873 666.0799999999873 686.0799999999873 706.0799999999872 726.0799999999872 746.0799999999872 766.0799999999872 786.0799999999872 806.0799999999872 826.0799999999872 846.0799999999872 866.0799999999872 886.0799999999872 906.0799999999872 926.0799999999872 946.0799999999872 966.0799999999872 986.0799999999872
cb_08,6.0,enc_trial,stim,response,STEM students,972.3399999999964,enc_trial,1.0,6.0,s_s_19_1,student_stem,fold-c,circuit board,8.0,unique,far,paired,s_s_19_1.jpg,stem,student-b1,STEM students,Fine Arts students,sub-52,1.0,1.0,1.0,1.0,0.5104166666666666 0.5104166666666666 0.5104166666666666 0.5104166666666666 0.5104166666666666 0.5104166666666666 0.5104166666666666 0.5041666666666667 0.4729166666666666 0.4319444444444445 0.3770833333333333 0.28958333333333336 0.24097222222222225 0.20277777777777767 0.16597222222222222 0.15069444444444444 0.15 0.15 0.15 0.15 0.15069444444444444 0.15 0.1486111111111111 0.14722222222222225 0.1388888888888889 0.13194444444444445 0.12638888888888888 0.12361111111111113 0.12361111111111113,0.812962962962963 0.812962962962963 0.812962962962963 0.812962962962963 0.812962962962963 0.812962962962963 0.812962962962963 0.8101851851851851 0.7833333333333333 0.7342592592592593 0.662962962962963 0.5407407407407407 0.4592592592592593 0.3888888888888888 0.2935185185185185 0.21203703703703705 0.18425925925925926 0.16296296296296298 0.15555555555555556 0.14629629629629626 0.1435185185185185 0.14074074074074072 0.13796296296296295 0.1342592592592593 0.125 0.11759259259259258 0.11296296296296293 0.11018518518518516 0.10925925925925928,412.13999999998487 432.13999999998487 452.13999999998487 472.13999999998487 492.13999999998487 512.1399999999849 532.1399999999849 552.1399999999849 572.1399999999849 592.1399999999849 612.1399999999849 632.1399999999849 652.1399999999849 672.1399999999849 692.1399999999849 712.1399999999849 732.1399999999849 752.1399999999849 772.1399999999849 792.1399999999849 812.1399999999849 832.1399999999849 852.1399999999849 872.1399999999849 892.1399999999849 912.1399999999848 932.1399999999848 952.1399999999848 972.1399999999848
cb_08,7.0,enc_trial,stim,response,STEM students,1200.0799999999872,enc_trial,1.0,7.0,s_s_11_2,student_stem,fold-d,scientific scale,8.0,unique,close,paired,s_s_11_2.jpg,stem,student-b1,STEM students,Fine Arts students,sub-52,1.0,1.0,1.0,1.0,0.5138888888888888 0.5138888888888888 0.5138888888888888 0.5138888888888888 0.5138888888888888 0.5138888888888888 0.5138888888888888 0.5138888888888888 0.5138888888888888 0.5138888888888888 0.5138888888888888 0.5138888888888888 0.5138888888888888 0.5138888888888888 0.5138888888888888 0.5138888888888888 0.5131944444444444 0.5118055555555555 0.5097222222222222 0.5083333333333333 0.5076388888888889 0.5041666666666667 0.4881944444444444 0.4638888888888889 0.4048611111111111 0.36527777777777776 0.33611111111111114 0.3138888888888889 0.3020833333333333 0.2930555555555556 0.2826388888888889 0.26319444444444445 0.25277777777777777 0.2416666666666667 0.23472222222222225 0.23125 0.22847222222222224 0.2243055555555556 0.2215277777777777 0.21666666666666667 0.2125 0.20555555555555555 0.19444444444444445 0.18611111111111112 0.16805555555555554 0.15138888888888888 0.13194444444444445 0.10555555555555557 0.09375 0.08194444444444443 0.0798611111111111 0.07847222222222222,0.812962962962963 0.812962962962963 0.812037037037037 0.812037037037037 0.812037037037037 0.812037037037037 0.812037037037037 0.812037037037037 0.812037037037037 0.812037037037037 0.812037037037037 0.812037037037037 0.812037037037037 0.812037037037037 0.812037037037037 0.812037037037037 0.812037037037037 0.8111111111111111 0.8101851851851851 0.8092592592592592 0.8083333333333333 0.8055555555555556 0.787037037037037 0.7546296296296297 0.675 0.6166666666666667 0.5703703703703704 0.5333333333333333 0.512962962962963 0.4962962962962964 0.4731481481481481 0.4222222222222223 0.3953703703703704 0.3666666666666667 0.34444444444444444 0.3314814814814815 0.3194444444444444 0.3046296296296296 0.29814814814814816 0.2888888888888889 0.28240740740740744 0.2694444444444445 0.24629629629629635 0.2314814814814815 0.2064814814814815 0.18148148148148147 0.1509259259259259 0.10833333333333328 0.0888888888888889 0.07407407407407407 0.07037037037037043 0.06851851851851852,121.22000000000116 141.22000000000116 161.22000000000116 181.2200000000012 201.2200000000012 221.2200000000012 241.2200000000012 261.22000000000116 281.22000000000116 301.22000000000116 321.22000000000116 341.22000000000116 361.2200000000012 381.2200000000012 401.2200000000012 421.2200000000012 441.2200000000012 461.2200000000012 481.2200000000012 501.2200000000012 521.2200000000012 541.2200000000012 561.2200000000012 581.2200000000012 601.2200000000012 621.2200000000012 641.2200000000012 661.2200000000012 681.2200000000012 701.2200000000012 721.2200000000012 741.2200000000012 761.2200000000012 781.2200000000012 801.2200000000012 821.2200000000012 841.2200000000012 861.2200000000012 881.2200000000012 901.2200000000012 921.2200000000012 941.2200000000012 961.2200000000012 981.2200000000012 1001.2200000000012 1021.2200000000012 1041.2200000000012 1061.2200000000012 1081.2200000000012 1101.2200000000012 1121.2200000000012 1141.2200000000012
cb_08,8.0,enc_trial,stim,response,Fine Arts students,1236.4399999999732,enc_trial,1.0,8.0,s_sh_19_2,student_shared,fold-a,portable plastic drawer,8.0,competing,close,paired,s_sh_19_2.jpg,,student-b1,STEM students,Fine Arts students,sub-52,1.0,1.0,0.0,0.0,0.5138888888888888 0.5152777777777777 0.5534722222222223 0.6041666666666666 0.6618055555555555 0.6743055555555556 0.6798611111111111 0.6840277777777778 0.6861111111111111 0.6868055555555556 0.6895833333333333 0.6923611111111111 0.6972222222222222 0.7027777777777777 0.7118055555555556 0.7180555555555556 0.7243055555555555 0.75 0.7736111111111111 0.8027777777777778 0.8291666666666667 0.8486111111111111 0.8569444444444444 0.8590277777777777 0.8604166666666667 0.8611111111111112 0.8631944444444445 0.8666666666666667 0.8694444444444445 0.8708333333333333 0.8708333333333333,0.8342592592592593 0.8194444444444444 0.6805555555555556 0.575 0.4935185185185185 0.4740740740740741 0.4601851851851851 0.4444444444444444 0.4361111111111111 0.4351851851851852 0.4314814814814815 0.4287037037037037 0.4222222222222223 0.4148148148148149 0.4018518518518519 0.3935185185185185 0.3851851851851852 0.3453703703703703 0.312037037037037 0.2731481481481481 0.2388888888888889 0.20277777777777767 0.1787037037037037 0.17129629629629628 0.16666666666666666 0.16296296296296298 0.15740740740740744 0.14722222222222225 0.13888888888888884 0.13611111111111107 0.1342592592592593,630.3399999999965 650.3399999999965 670.3399999999965 690.3399999999965 710.3399999999965 730.3399999999965 750.3399999999965 770.3399999999965 790.3399999999965 810.3399999999965 830.3399999999965 850.3399999999965 870.3399999999965 890.3399999999965 910.3399999999964 930.3399999999964 950.3399999999964 970.3399999999964 990.3399999999964 1010.3399999999964 1030.3399999999963 1050.3399999999963 1070.3399999999963 1090.3399999999963 1110.3399999999963 1130.3399999999965 1150.3399999999965 1170.3399999999965 1190.3399999999965 1210.3399999999965 1230.3399999999965
cb_08,9.0,enc_trial,stim,response,STEM students,1097.0199999999895,enc_trial,1.0,9.0,s_sh_07_1,student_shared,fold-a,ruler,8.0,competing,close,paired,s_sh_07_1.jpg,,student-b1,STEM students,Fine Arts students,sub-52,1.0,1.0,1.0,1.0,0.5013888888888889 0.5013888888888889 0.4986111111111111 0.4861111111111111 0.4513888888888889 0.4006944444444445 0.3673611111111112 0.3284722222222222 0.3104166666666667 0.2965277777777778 0.28194444444444444 0.27291666666666664 0.2701388888888889 0.2645833333333333 0.2590277777777778 0.25555555555555554 0.2513888888888889 0.24305555555555555 0.2381944444444445 0.23194444444444445 0.22291666666666668 0.20972222222222225 0.19722222222222224 0.17569444444444446 0.15902777777777774 0.1486111111111111 0.14375 0.14097222222222222,0.8212962962962963 0.8212962962962963 0.8194444444444444 0.8074074074074074 0.762962962962963 0.6888888888888889 0.6342592592592593 0.5675925925925926 0.5296296296296297 0.4962962962962964 0.44166666666666665 0.3944444444444445 0.3703703703703704 0.337037037037037 0.3037037037037037 0.2842592592592592 0.2657407407407407 0.2416666666666667 0.22685185185185186 0.2157407407407408 0.20092592592592595 0.18796296296296305 0.1777777777777778 0.1592592592592592 0.14629629629629626 0.13888888888888884 0.1351851851851852 0.13148148148148153,545.4799999999814 565.4799999999814 585.4799999999814 605.4799999999814 625.4799999999814 645.4799999999814 665.4799999999814 685.4799999999814 705.4799999999814 725.4799999999814 745.4799999999814 765.4799999999814 785.4799999999814 805.4799999999814 825.4799999999814 845.4799999999814 865.4799999999814 885.4799999999814 905.4799999999814 925.4799999999814 945.4799999999814 965.4799999999814 985.4799999999814 1005.4799999999814 1025.4799999999814 1045.4799999999814 1065.4799999999814 1085.4799999999814
cb_08,10.0,enc_trial,stim,response,Fine Arts students,1081.7600000000093,enc_trial,1.0,10.0,s_a_14_1,student_art,fold-c,guitar pick,8.0,unique,far,paired,s_a_14_1.jpg,art,student-b1,STEM students,Fine Arts students,sub-52,1.0,1.0,1.0,1.0,0.5048611111111111 0.5048611111111111 0.5409722222222222 0.5881944444444445 0.6583333333333333 0.7006944444444444 0.71875 0.7291666666666666 0.7354166666666667 0.7388888888888889 0.7416666666666667 0.7486111111111111 0.7534722222222222 0.7638888888888888 0.7895833333333333 0.8166666666666667 0.8381944444444445 0.8493055555555555 0.8506944444444444 0.8506944444444444,0.8333333333333334 0.8166666666666667 0.6953703703703704 0.5777777777777777 0.4277777777777778 0.35 0.312037037037037 0.2898148148148149 0.2768518518518519 0.27222222222222225 0.2675925925925926 0.2583333333333333 0.2518518518518519 0.2351851851851852 0.1944444444444444 0.1527777777777778 0.11759259259259258 0.09537037037037033 0.09166666666666667 0.0907407407407408,678.820000000007 698.820000000007 718.820000000007 738.820000000007 758.820000000007 778.820000000007 798.820000000007 818.820000000007 838.820000000007 858.820000000007 878.820000000007 898.820000000007 918.820000000007 938.820000000007 958.820000000007 978.820000000007 998.820000000007 1018.820000000007 1038.820000000007 1058.820000000007
cb_08,11.0,enc_trial,stim,response,STEM students,1391.7999999999884,enc_trial,1.0,11.0,s_s_20_1,student_stem,fold-d,dna model,8.0,unique,close,paired,s_s_20_1.jpg,stem,student-b1,STEM students,Fine Arts students,sub-52,1.0,1.0,1.0,1.0,0.5041666666666667 0.5006944444444444 0.4729166666666666 0.4243055555555556 0.32916666666666666 0.2722222222222222 0.20069444444444445 0.15347222222222226 0.13194444444444445 0.11597222222222225 0.10486111111111113 0.10138888888888888 0.09930555555555556 0.09791666666666668 0.09722222222222222 0.09652777777777778 0.09444444444444444 0.08819444444444445 0.08333333333333333 0.0798611111111111 0.07847222222222222 0.07847222222222222 0.07916666666666666 0.08055555555555556 0.0875 0.09652777777777778 0.11041666666666666 0.12013888888888888 0.125 0.12986111111111112 0.13055555555555556,0.799074074074074 0.7972222222222223 0.7703703703703704 0.712962962962963 0.5805555555555555 0.4935185185185185 0.37777777777777777 0.2805555555555556 0.22685185185185186 0.17500000000000004 0.12685185185185188 0.10462962962962964 0.09629629629629632 0.0907407407407408 0.08518518518518514 0.08333333333333337 0.07685185185185184 0.06481481481481477 0.05555555555555558 0.04629629629629628 0.04166666666666663 0.04074074074074074 0.04074074074074074 0.04259259259259263 0.051851851851851816 0.06481481481481477 0.08425925925925926 0.09907407407407408 0.1074074074074074 0.11388888888888893 0.1166666666666667,800.0599999999977 820.0599999999977 840.0599999999977 860.0599999999977 880.0599999999977 900.0599999999977 920.0599999999976 940.0599999999976 960.0599999999976 980.0599999999976 1000.0599999999976 1020.0599999999976 1040.0599999999977 1060.0599999999977 1080.0599999999977 1100.0599999999977 1120.0599999999977 1140.0599999999977 1160.0599999999977 1180.0599999999977 1200.0599999999977 1220.0599999999977 1240.0599999999977 1260.0599999999977 1280.0599999999977 1300.0599999999977 1320.0599999999977 1340.0599999999977 1360.0599999999977 1380.0599999999977 1400.0599999999977
cb_08,12.0,enc_trial,stim,response,Fine Arts students,1400.7200000000012,enc_trial,1.0,12.0,s_sh_07_2,student_shared,fold-a,ruler,8.0,competing,close,paired,s_sh_07_2.jpg,,student-b1,STEM students,Fine Arts students,sub-52,1.0,1.0,1.0,1.0,0.5111111111111111 0.5111111111111111 0.5111111111111111 0.5111111111111111 0.5111111111111111 0.5111111111111111 0.5111111111111111 0.5111111111111111 0.5111111111111111 0.5111111111111111 0.5111111111111111 0.5111111111111111 0.5111111111111111 0.5111111111111111 0.5111111111111111 0.5111111111111111 0.5111111111111111 0.5111111111111111 0.5125 0.5236111111111111 0.5388888888888889 0.5590277777777778 0.5659722222222222 0.5673611111111111 0.5736111111111111 0.5909722222222222 0.6173611111111111 0.6416666666666667 0.65 0.6576388888888889 0.6756944444444445 0.7381944444444445 0.7673611111111112 0.7861111111111111 0.8013888888888889 0.80625 0.8090277777777778 0.8111111111111111 0.8131944444444444 0.8166666666666667 0.8222222222222222 0.8277777777777777 0.8298611111111112 0.8291666666666667 0.8152777777777778 0.7930555555555555 0.7638888888888888 0.7576388888888889 0.7604166666666666 0.7708333333333334 0.7881944444444444 0.8173611111111111 0.8375 0.8465277777777778 0.8569444444444444 0.8611111111111112,0.8046296296296296 0.8046296296296296 0.8046296296296296 0.8046296296296296 0.8046296296296296 0.8046296296296296 0.8046296296296296 0.8046296296296296 0.8046296296296296 0.8046296296296296 0.8046296296296296 0.8046296296296296 0.8046296296296296 0.8046296296296296 0.8046296296296296 0.8046296296296296 0.8046296296296296 0.8046296296296296 0.7935185185185185 0.7648148148148148 0.7175925925925926 0.6564814814814814 0.6231481481481482 0.6074074074074074 0.5740740740740741 0.5305555555555556 0.4796296296296296 0.4398148148148148 0.4240740740740741 0.4120370370370371 0.38703703703703707 0.3296296296296296 0.30925925925925923 0.2944444444444444 0.2805555555555556 0.2759259259259259 0.27222222222222225 0.2685185185185185 0.26388888888888884 0.2574074074074074 0.25 0.2398148148148148 0.2333333333333333 0.2305555555555555 0.2231481481481481 0.2138888888888889 0.1962962962962963 0.1898148148148148 0.18518518518518529 0.18148148148148147 0.17592592592592593 0.16759259259259265 0.15833333333333333 0.15370370370370368 0.14814814814814814 0.14537037037037034,303.0599999999977 323.0599999999977 343.0599999999977 363.05999999999773 383.05999999999773 403.05999999999773 423.05999999999773 443.05999999999773 463.05999999999773 483.05999999999773 503.05999999999773 523.0599999999977 543.0599999999977 563.0599999999978 583.0599999999978 603.0599999999978 623.0599999999978 643.0599999999978 663.0599999999978 683.0599999999978 703.0599999999977 723.0599999999977 743.0599999999977 763.0599999999977 783.0599999999977 803.0599999999977 823.0599999999977 843.0599999999977 863.0599999999977 883.0599999999977 903.0599999999976 923.0599999999976 943.0599999999976 963.0599999999976 983.0599999999976 1003.0599999999976 1023.0599999999976 1043.0599999999977 1063.0599999999977 1083.0599999999977 1103.0599999999977 1123.0599999999977 1143.0599999999977 1163.0599999999977 1183.0599999999977 1203.0599999999977 1223.0599999999977 1243.0599999999977 1263.0599999999977 1283.0599999999977 1303.0599999999977 1323.0599999999977 1343.0599999999977 1363.0599999999977 1383.0599999999977 1403.0599999999977
cb_08,13.0,enc_trial,stim,response,STEM students,1199.5,enc_trial,1.0,13.0,s_sh_09_1,student_shared,fold-c,paper clips,8.0,competing,far,paired,s_sh_09_1.jpg,,student-b1,STEM students,Fine Arts students,sub-52,1.0,1.0,0.0,1.0,0.4972222222222222 0.4951388888888889 0.4798611111111111 0.44027777777777777 0.3611111111111111 0.3347222222222222 0.31805555555555554 0.3013888888888889 0.29375 0.2881944444444444 0.2861111111111111 0.28541666666666665 0.28402777777777777 0.2805555555555556 0.2722222222222222 0.25833333333333336 0.2458333333333333 0.22361111111111112 0.20902777777777776 0.19166666666666668 0.1798611111111111 0.15625 0.14444444444444446 0.13819444444444445,0.7916666666666666 0.787037037037037 0.7638888888888888 0.6972222222222222 0.5481481481481482 0.487037037037037 0.4388888888888889 0.3768518518518519 0.3416666666666667 0.3037037037037037 0.2851851851851852 0.2796296296296297 0.27407407407407397 0.2675925925925926 0.25555555555555554 0.2407407407407407 0.2333333333333333 0.2222222222222222 0.21203703703703705 0.19259259259259254 0.17962962962962958 0.1601851851851852 0.15000000000000002 0.1435185185185185,745.5 765.5 785.5 805.5 825.5 845.5 865.5 885.5 905.5 925.5 945.5 965.5 985.5 1005.5 1025.5 1045.5 1065.5 1085.5 1105.5 1125.5 1145.5 1165.5 1185.5 1205.5
cb_08,14.0,enc_trial,stim,response,Fine Arts students,1475.3800000000049,enc_trial,1.0,14.0,s_a_06_1,student_art,fold-d,pastels,8.0,unique,close,paired,s_a_06_1.jpg,art,student-b1,STEM students,Fine Arts students,sub-52,1.0,1.0,1.0,1.0,0.5006944444444444 0.5006944444444444 0.5 0.5 0.5 0.5 0.5 0.5 0.4986111111111111 0.4972222222222222 0.4951388888888889 0.49375 0.4986111111111111 0.5173611111111112 0.5777777777777777 0.6333333333333333 0.7180555555555556 0.8069444444444445 0.8631944444444445 0.8972222222222223 0.9090277777777778 0.9152777777777776 0.9173611111111112 0.9194444444444444 0.9215277777777776 0.9236111111111112 0.9284722222222224 0.9319444444444444 0.9333333333333332 0.9361111111111112 0.9375 0.9388888888888888 0.9395833333333332 0.9402777777777778 0.9402777777777778 0.9402777777777778 0.9402777777777778 0.9395833333333332 0.9395833333333332 0.9388888888888888 0.9333333333333332 0.925 0.9118055555555556 0.9090277777777778,0.8203703703703704 0.8203703703703704 0.8194444444444444 0.8194444444444444 0.8194444444444444 0.8194444444444444 0.8194444444444444 0.8194444444444444 0.8185185185185185 0.8166666666666667 0.812037037037037 0.8055555555555556 0.7777777777777778 0.7268518518518519 0.5675925925925926 0.4120370370370371 0.16666666666666666 0.0009259259259258855 0.0009259259259258855 0.0009259259259258855 0.0009259259259258855 0.0009259259259258855 0.003703703703703653 0.0092592592592593 0.019444444444444486 0.024074074074074026 0.033333333333333326 0.04259259259259263 0.05000000000000005 0.05740740740740746 0.062037037037037016 0.06574074074074078 0.06944444444444442 0.07407407407407407 0.07777777777777772 0.07777777777777772 0.07777777777777772 0.07777777777777772 0.07777777777777772 0.0796296296296296 0.0888888888888889 0.10092592592592596 0.11759259259259258 0.12129629629629635,624.2799999999988 644.2799999999988 664.2799999999988 684.2799999999988 704.2799999999988 724.2799999999988 744.2799999999988 764.2799999999988 784.2799999999988 804.2799999999988 824.2799999999988 844.2799999999988 864.2799999999988 884.2799999999988 904.2799999999988 924.2799999999988 944.2799999999988 964.2799999999988 984.2799999999988 1004.2799999999988 1024.2799999999988 1044.2799999999988 1064.2799999999988 1084.2799999999988 1104.2799999999988 1124.2799999999988 1144.2799999999988 1164.2799999999988 1184.2799999999988 1204.2799999999988 1224.2799999999988 1244.2799999999988 1264.2799999999988 1284.2799999999988 1304.2799999999988 1324.2799999999988 1344.2799999999988 1364.2799999999988 1384.2799999999988 1404.2799999999988 1424.2799999999988 1444.2799999999988 1464.2799999999988 1484.2799999999988
cb_08,15.0,enc_trial,stim,response,STEM students,1390.459999999992,enc_trial,1.0,15.0,s_s_20_2,student_stem,fold-d,dna model,8.0,unique,close,paired,s_s_20_2.jpg,stem,student-b1,STEM students,Fine Arts students,sub-52,1.0,1.0,1.0,1.0,0.4986111111111111 0.4986111111111111 0.4986111111111111 0.4986111111111111 0.4986111111111111 0.4986111111111111 0.4986111111111111 0.4986111111111111 0.4986111111111111 0.4986111111111111 0.4986111111111111 0.4986111111111111 0.4986111111111111 0.4986111111111111 0.4986111111111111 0.4986111111111111 0.4986111111111111 0.4986111111111111 0.4986111111111111 0.4986111111111111 0.4986111111111111 0.4986111111111111 0.4986111111111111 0.4986111111111111 0.4986111111111111 0.4986111111111111 0.4986111111111111 0.4986111111111111 0.4979166666666667 0.4923611111111112 0.4881944444444444 0.4791666666666667 0.4652777777777778 0.4180555555555556 0.3798611111111111 0.37222222222222223 0.37083333333333335 0.3694444444444445 0.3694444444444445 0.3680555555555556 0.3680555555555556 0.3666666666666665 0.3618055555555556 0.3486111111111111 0.3229166666666667 0.3104166666666667 0.30625 0.30486111111111114 0.3020833333333333 0.30069444444444443 0.3 0.30069444444444443 0.3020833333333333 0.3020833333333333 0.3020833333333333 0.3013888888888889 0.29930555555555555 0.2722222222222222 0.2520833333333333 0.23680555555555555 0.2222222222222222 0.19652777777777766 0.18055555555555555 0.1625 0.15208333333333332 0.14791666666666667 0.14583333333333334,0.8203703703703704 0.8203703703703704 0.8203703703703704 0.8194444444444444 0.8194444444444444 0.8194444444444444 0.8194444444444444 0.8194444444444444 0.8194444444444444 0.8194444444444444 0.8194444444444444 0.8194444444444444 0.8194444444444444 0.8194444444444444 0.8194444444444444 0.8194444444444444 0.8194444444444444 0.8194444444444444 0.8194444444444444 0.8194444444444444 0.8194444444444444 0.8194444444444444 0.8194444444444444 0.8194444444444444 0.8194444444444444 0.8194444444444444 0.8194444444444444 0.8194444444444444 0.8175925925925926 0.8046296296296296 0.7944444444444445 0.7731481481481481 0.7472222222222222 0.662962962962963 0.5805555555555555 0.5601851851851851 0.5527777777777778 0.55 0.5453703703703704 0.5240740740740741 0.4981481481481481 0.4601851851851851 0.4388888888888889 0.4092592592592592 0.35 0.31018518518518523 0.2870370370370371 0.2731481481481481 0.2629629629629629 0.25277777777777777 0.2361111111111112 0.2296296296296297 0.2277777777777777 0.22685185185185186 0.225 0.225 0.225 0.2231481481481481 0.21944444444444444 0.21111111111111114 0.2 0.1787037037037037 0.16481481481481486 0.14629629629629626 0.13703703703703707 0.1333333333333333 0.13055555555555556,66.67999999999302 86.67999999999302 106.67999999999302 126.67999999999302 146.67999999999304 166.67999999999304 186.67999999999302 206.67999999999302 226.67999999999302 246.67999999999302 266.67999999999296 286.67999999999296 306.67999999999296 326.67999999999296 346.67999999999296 366.67999999999296 386.67999999999296 406.67999999999296 426.67999999999296 446.67999999999296 466.67999999999296 486.67999999999296 506.67999999999296 526.679999999993 546.679999999993 566.679999999993 586.679999999993 606.679999999993 626.679999999993 646.679999999993 666.679999999993 686.679999999993 706.679999999993 726.679999999993 746.679999999993 766.679999999993 786.679999999993 806.679999999993 826.679999999993 846.679999999993 866.679999999993 886.679999999993 906.679999999993 926.679999999993 946.679999999993 966.679999999993 986.679999999993 1006.679999999993 1026.679999999993 1046.679999999993 1066.679999999993 1086.679999999993 1106.679999999993 1126.679999999993 1146.679999999993 1166.679999999993 1186.679999999993 1206.679999999993 1226.679999999993 1246.679999999993 1266.679999999993 1286.679999999993 1306.679999999993 1326.679999999993 1346.679999999993 1366.679999999993 1386.679999999993
cb_08,16.0,enc_trial,stim,response,STEM students,1335.4200000000128,enc_trial,1.0,16.0,s_s_15_2,student_stem,fold-c,jumper cables,8.0,unique,far,paired,s_s_15_2.jpg,stem,student-b1,STEM students,Fine Arts students,sub-52,1.0,1.0,1.0,1.0,0.5111111111111111 0.5111111111111111 0.5111111111111111 0.5111111111111111 0.5111111111111111 0.5111111111111111 0.5111111111111111 0.5111111111111111 0.5111111111111111 0.5111111111111111 0.5111111111111111 0.5104166666666666 0.5076388888888889 0.4979166666666667 0.4854166666666666 0.4770833333333334 0.4701388888888889 0.4611111111111112 0.4590277777777778 0.4645833333333334 0.4916666666666666 0.5638888888888889 0.6159722222222223 0.6638888888888889 0.6722222222222223 0.6722222222222223 0.66875 0.6173611111111111 0.5548611111111111 0.4819444444444445 0.4138888888888889 0.32222222222222224 0.24722222222222226 0.21180555555555555 0.1840277777777778 0.17430555555555555 0.16458333333333333 0.14305555555555555 0.12222222222222222 0.11458333333333333 0.10694444444444444 0.09513888888888887 0.09236111111111113,0.7898148148148147 0.7898148148148147 0.7898148148148147 0.7898148148148147 0.7898148148148147 0.7898148148148147 0.7898148148148147 0.7898148148148147 0.7898148148148147 0.7898148148148147 0.7898148148148147 0.7898148148148147 0.7888888888888889 0.7796296296296297 0.7638888888888888 0.7518518518518519 0.7379629629629629 0.7074074074074075 0.6592592592592592 0.5990740740740741 0.5074074074074074 0.3416666666666667 0.25277777777777777 0.18703703703703692 0.17592592592592593 0.17500000000000004 0.17407407407407405 0.1805555555555556 0.1944444444444444 0.2055555555555556 0.20740740740740726 0.19907407407407407 0.18148148148148147 0.1703703703703704 0.1601851851851852 0.15555555555555556 0.1518518518518519 0.1444444444444445 0.13981481481481484 0.13888888888888884 0.13888888888888884 0.13888888888888884 0.13888888888888884,460.640000000014 480.640000000014 500.640000000014 520.6400000000141 540.6400000000141 560.6400000000141 580.6400000000141 600.6400000000141 620.6400000000141 640.6400000000141 660.6400000000141 680.6400000000141 700.6400000000141 720.6400000000141 740.6400000000141 760.6400000000141 780.6400000000141 800.6400000000141 820.6400000000141 840.6400000000141 860.6400000000141 880.6400000000141 900.6400000000141 920.6400000000141 940.6400000000141 960.6400000000141 980.6400000000141 1000.6400000000141 1020.6400000000141 1040.640000000014 1060.640000000014 1080.640000000014 1100.640000000014 1120.640000000014 1140.640000000014 1160.640000000014 1180.640000000014 1200.640000000014 1220.640000000014 1240.640000000014 1260.640000000014 1280.640000000014 1300.640000000014
cb_08,17.0,enc_trial,stim,response,Fine Arts students,1210.8800000000047,enc_trial,1.0,17.0,s_a_06_2,student_art,fold-d,pastels,8.0,unique,close,paired,s_a_06_2.jpg,art,student-b1,STEM students,Fine Arts students,sub-52,1.0,1.0,1.0,1.0,0.5145833333333333 0.5145833333333333 0.5145833333333333 0.5145833333333333 0.5138888888888888 0.5138888888888888 0.5138888888888888 0.5138888888888888 0.5138888888888888 0.5138888888888888 0.5138888888888888 0.5138888888888888 0.5138888888888888 0.5138888888888888 0.5138888888888888 0.5138888888888888 0.5138888888888888 0.5131944444444444 0.5131944444444444 0.5131944444444444 0.5131944444444444 0.5131944444444444 0.5131944444444444 0.51875 0.5458333333333333 0.58125 0.6270833333333333 0.6965277777777777 0.7611111111111111 0.7875 0.8013888888888889 0.8083333333333333 0.8104166666666667 0.8118055555555556 0.8131944444444444 0.8152777777777778 0.8173611111111111 0.81875 0.81875 0.8194444444444444 0.8201388888888889,0.8064814814814815 0.8064814814814815 0.8064814814814815 0.8064814814814815 0.8055555555555556 0.8055555555555556 0.8055555555555556 0.8055555555555556 0.8055555555555556 0.8055555555555556 0.8055555555555556 0.8055555555555556 0.8055555555555556 0.8055555555555556 0.8055555555555556 0.8055555555555556 0.8055555555555556 0.8055555555555556 0.8055555555555556 0.8046296296296296 0.8046296296296296 0.8037037037037037 0.8018518518518518 0.7824074074074074 0.7027777777777777 0.6027777777777779 0.4796296296296296 0.3046296296296296 0.18333333333333326 0.1435185185185185 0.12870370370370365 0.12314814814814813 0.12314814814814813 0.12592592592592589 0.1351851851851852 0.1425925925925926 0.14722222222222225 0.15000000000000002 0.15000000000000002 0.1509259259259259 0.1509259259259259,363.6600000000035 383.6600000000035 403.6600000000035 423.6600000000035 443.6600000000035 463.6600000000035 483.6600000000035 503.6600000000035 523.6600000000035 543.6600000000035 563.6600000000035 583.6600000000035 603.6600000000035 623.6600000000035 643.6600000000035 663.6600000000035 683.6600000000035 703.6600000000035 723.6600000000035 743.6600000000035 763.6600000000035 783.6600000000035 803.6600000000035 823.6600000000035 843.6600000000035 863.6600000000035 883.6600000000035 903.6600000000036 923.6600000000036 943.6600000000036 963.6600000000036 983.6600000000036 1003.6600000000036 1023.6600000000036 1043.6600000000037 1063.6600000000037 1083.6600000000037 1103.6600000000037 1123.6600000000037 1143.6600000000035 1163.6600000000035
cb_08,18.0,enc_trial,stim,response,STEM students,1265.6199999999953,enc_trial,1.0,18.0,s_sh_20_1,student_shared,fold-c,tape,8.0,competing,far,paired,s_sh_20_1.jpg,,student-b1,STEM students,Fine Arts students,sub-52,1.0,1.0,1.0,1.0,0.4909722222222222 0.4916666666666666 0.4916666666666666 0.4916666666666666 0.4916666666666666 0.4916666666666666 0.4916666666666666 0.4916666666666666 0.4916666666666666 0.4916666666666666 0.4916666666666666 0.4916666666666666 0.4916666666666666 0.4916666666666666 0.4916666666666666 0.4916666666666666 0.4916666666666666 0.4916666666666666 0.4916666666666666 0.4916666666666666 0.4916666666666666 0.4916666666666666 0.4916666666666666 0.4916666666666666 0.4916666666666666 0.4916666666666666 0.4916666666666666 0.4916666666666666 0.4916666666666666 0.4916666666666666 0.4916666666666666 0.4916666666666666 0.4916666666666666 0.4916666666666666 0.4895833333333333 0.475 0.4451388888888889 0.36041666666666666 0.29375 0.2395833333333333 0.18194444444444444 0.1527777777777778 0.13958333333333334 0.12986111111111112 0.12013888888888888 0.11597222222222225 0.11458333333333333 0.11458333333333333 0.11388888888888887 0.11388888888888887 0.1125 0.11180555555555556 0.11180555555555556 0.11180555555555556 0.11180555555555556 0.11388888888888887 0.11666666666666667 0.12361111111111113 0.12916666666666668 0.13680555555555554 0.13958333333333334 0.14097222222222222,0.7953703703703704 0.7953703703703704 0.7953703703703704 0.7953703703703704 0.7953703703703704 0.7953703703703704 0.7953703703703704 0.7953703703703704 0.7953703703703704 0.7953703703703704 0.7953703703703704 0.7953703703703704 0.7953703703703704 0.7953703703703704 0.7953703703703704 0.7953703703703704 0.7962962962962963 0.7972222222222223 0.7972222222222223 0.7972222222222223 0.7981481481481482 0.7981481481481482 0.7981481481481482 0.799074074074074 0.799074074074074 0.799074074074074 0.799074074074074 0.799074074074074 0.799074074074074 0.799074074074074 0.799074074074074 0.799074074074074 0.799074074074074 0.799074074074074 0.7972222222222223 0.7805555555555556 0.7453703703703703 0.6527777777777778 0.5814814814814815 0.5175925925925926 0.45 0.4055555555555556 0.3768518518518519 0.34444444444444444 0.30092592592592593 0.2731481481481481 0.2592592592592593 0.2435185185185185 0.2388888888888889 0.2342592592592593 0.2240740740740741 0.2129629629629629 0.20740740740740726 0.20185185185185184 0.1953703703703704 0.18703703703703692 0.17500000000000004 0.16481481481481486 0.1601851851851852 0.15648148148148144 0.15555555555555556 0.15462962962962967,0.0 20.0 40.0 60.0 80.0 100.0 120.0 140.0 160.0 180.0 200.0 220.0 240.0 260.0 280.0 300.0 320.0 340.0 360.0 380.0 400.0 420.0 440.0 460.0 480.0 500.0 520.0 540.0 560.0 580.0 600.0 620.0 640.0 660.0 680.0 700.0 720.0 740.0 760.0 780.0 800.0 820.0 840.0 860.0 880.0 900.0 920.0 940.0 960.0 980.0 1000.0 1020.0 1040.0 1060.0 1080.0 1100.0 1120.0 1140.0 1160.0 1180.0 1200.0 1220.0
cb_08,19.0,enc_trial,stim,response,Fine Arts students,1183.820000000007,enc_trial,1.0,19.0,s_a_12_2,student_art,fold-c,saxophone,8.0,unique,far,paired,s_a_12_2.jpg,art,student-b1,STEM students,Fine Arts students,sub-52,1.0,1.0,1.0,1.0,0.5055555555555555 0.5111111111111111 0.5277777777777778 0.5597222222222222 0.65 0.6972222222222222 0.7451388888888889 0.8104166666666667 0.8388888888888889 0.8555555555555555 0.8590277777777777 0.8611111111111112 0.8611111111111112 0.8625 0.8666666666666667 0.8680555555555556 0.8694444444444445 0.8708333333333333 0.8763888888888889 0.8840277777777777 0.8895833333333333 0.8951388888888889 0.8958333333333334 0.8944444444444445 0.8916666666666667 0.8909722222222223,0.7916666666666666 0.7824074074074074 0.7416666666666667 0.6490740740740741 0.3842592592592593 0.2611111111111111 0.1611111111111111 0.06388888888888887 0.03888888888888886 0.026851851851851904 0.025000000000000026 0.024074074074074026 0.024074074074074026 0.025000000000000026 0.025925925925925908 0.025925925925925908 0.026851851851851904 0.028703703703703683 0.037962962962962976 0.04814814814814816 0.05833333333333335 0.07222222222222219 0.08240740740740737 0.09907407407407408 0.11018518518518516 0.11111111111111116,690.9400000000023 710.9400000000023 730.9400000000023 750.9400000000023 770.9400000000023 790.9400000000023 810.9400000000023 830.9400000000023 850.9400000000023 870.9400000000023 890.9400000000023 910.9400000000024 930.9400000000024 950.9400000000024 970.9400000000024 990.9400000000024 1010.9400000000024 1030.9400000000023 1050.9400000000023 1070.9400000000023 1090.9400000000023 1110.9400000000023 1130.9400000000023 1150.9400000000023 1170.9400000000023 1190.9400000000023
cb_08,20.0,enc_trial,stim,response,Fine Arts students,1205.820000000007,enc_trial,1.0,20.0,s_a_09_1,student_art,fold-e-single,picture frame,8.0,unique,,single,s_a_09_1.jpg,art,student-b1,STEM students,Fine Arts students,sub-52,1.0,,1.0,,0.50625 0.5048611111111111 0.5034722222222222 0.5027777777777778 0.5027777777777778 0.5027777777777778 0.5027777777777778 0.5027777777777778 0.5027777777777778 0.5027777777777778 0.5027777777777778 0.5027777777777778 0.5027777777777778 0.5027777777777778 0.5027777777777778 0.5020833333333333 0.5013888888888889 0.5013888888888889 0.5013888888888889 0.5013888888888889 0.5013888888888889 0.5013888888888889 0.5013888888888889 0.5013888888888889 0.5013888888888889 0.5013888888888889 0.5013888888888889 0.5013888888888889 0.5013888888888889 0.5013888888888889 0.5013888888888889 0.5013888888888889 0.5013888888888889 0.5006944444444444 0.4986111111111111 0.4958333333333334 0.4958333333333334 0.5243055555555556 0.5638888888888889 0.6243055555555556 0.6972222222222222 0.7777777777777778 0.8090277777777778 0.8131944444444444 0.8166666666666667 0.81875 0.8208333333333333 0.8236111111111111 0.8284722222222223 0.8368055555555556 0.8465277777777778 0.8569444444444444 0.8583333333333333 0.8583333333333333 0.8576388888888888 0.8555555555555555 0.8541666666666666 0.8527777777777777 0.8493055555555555 0.8472222222222222 0.8465277777777778,0.799074074074074 0.7981481481481482 0.7972222222222223 0.7962962962962963 0.7962962962962963 0.7962962962962963 0.7962962962962963 0.7962962962962963 0.7962962962962963 0.7962962962962963 0.7962962962962963 0.7962962962962963 0.7962962962962963 0.7962962962962963 0.7962962962962963 0.7953703703703704 0.7935185185185185 0.7916666666666666 0.7907407407407407 0.7907407407407407 0.7907407407407407 0.7907407407407407 0.7907407407407407 0.7907407407407407 0.7907407407407407 0.7907407407407407 0.7907407407407407 0.7907407407407407 0.7907407407407407 0.7907407407407407 0.7907407407407407 0.7907407407407407 0.7907407407407407 0.7898148148148147 0.7842592592592592 0.7712962962962963 0.7509259259259259 0.6546296296296297 0.5861111111111111 0.5046296296296297 0.4212962962962963 0.3222222222222222 0.2768518518518519 0.2685185185185185 0.26388888888888884 0.26388888888888884 0.26388888888888884 0.2666666666666667 0.2703703703703704 0.2731481481481481 0.2759259259259259 0.2777777777777778 0.2787037037037037 0.2787037037037037 0.2759259259259259 0.2675925925925926 0.25462962962962965 0.2305555555555555 0.2055555555555556 0.19166666666666665 0.18888888888888888,12.119999999995349 32.11999999999535 52.11999999999536 72.11999999999534 92.11999999999534 112.11999999999534 132.11999999999534 152.11999999999534 172.11999999999534 192.11999999999531 212.11999999999531 232.11999999999531 252.11999999999531 272.1199999999953 292.1199999999953 312.1199999999953 332.1199999999953 352.11999999999534 372.11999999999534 392.11999999999534 412.11999999999534 432.11999999999534 452.11999999999534 472.11999999999534 492.11999999999534 512.1199999999953 532.1199999999953 552.1199999999953 572.1199999999952 592.1199999999952 612.1199999999952 632.1199999999952 652.1199999999952 672.1199999999952 692.1199999999952 712.1199999999952 732.1199999999952 752.1199999999952 772.1199999999952 792.1199999999952 812.1199999999952 832.1199999999952 852.1199999999952 872.1199999999952 892.1199999999952 912.1199999999952 932.1199999999952 952.1199999999952 972.1199999999952 992.1199999999952 1012.1199999999952 1032.1199999999953 1052.1199999999953 1072.1199999999953 1092.1199999999953 1112.1199999999953 1132.1199999999953 1152.1199999999953 1172.1199999999953 1192.1199999999953 1212.1199999999953
cb_08,21.0,enc_trial,stim,response,Fine Arts students,1059.6199999999953,enc_trial,1.0,21.0,s_a_15_1,student_art,fold-d,drum kit,8.0,unique,close,paired,s_a_15_1.jpg,art,student-b1,STEM students,Fine Arts students,sub-52,1.0,1.0,1.0,1.0,0.4986111111111111 0.4986111111111111 0.4986111111111111 0.4986111111111111 0.4986111111111111 0.4986111111111111 0.4986111111111111 0.4986111111111111 0.5034722222222222 0.5291666666666667 0.5638888888888889 0.6486111111111111 0.7048611111111112 0.7590277777777777 0.7944444444444444 0.80625 0.8118055555555556 0.8138888888888889 0.8145833333333333 0.8152777777777778 0.8159722222222222 0.81875 0.8208333333333333 0.8229166666666666 0.825 0.8291666666666667 0.8354166666666667 0.8451388888888889 0.8486111111111111,0.8009259259259259 0.8 0.799074074074074 0.7981481481481482 0.7972222222222223 0.7972222222222223 0.7953703703703704 0.7842592592592592 0.7638888888888888 0.6898148148148149 0.6037037037037036 0.4296296296296296 0.3212962962962963 0.2333333333333333 0.20185185185185184 0.2 0.2 0.20277777777777767 0.2055555555555556 0.2083333333333333 0.2083333333333333 0.20740740740740726 0.2055555555555556 0.20185185185185184 0.1972222222222222 0.19351851851851853 0.18703703703703692 0.17407407407407405 0.16666666666666666,503.05999999999773 523.0599999999977 543.0599999999977 563.0599999999977 583.0599999999974 603.0599999999974 623.0599999999974 643.0599999999972 663.0599999999972 683.0599999999972 703.0599999999972 723.0599999999971 743.059999999997 763.059999999997 783.059999999997 803.059999999997 823.0599999999968 843.0599999999968 863.0599999999968 883.0599999999966 903.0599999999963 923.0599999999963 943.0599999999963 963.0599999999963 983.0599999999963 1003.0599999999963 1023.0599999999963 1043.059999999996 1063.059999999996
cb_08,22.0,enc_trial,stim,response,STEM students,882.8999999999942,enc_trial,1.0,22.0,s_s_19_2,student_stem,fold-c,circuit board,8.0,unique,far,paired,s_s_19_2.jpg,stem,student-b1,STEM students,Fine Arts students,sub-52,1.0,1.0,1.0,1.0,0.5020833333333333 0.5020833333333333 0.5020833333333333 0.5013888888888889 0.5013888888888889 0.5013888888888889 0.5013888888888889 0.5013888888888889 0.5013888888888889 0.5013888888888889 0.5013888888888889 0.5013888888888889 0.5013888888888889 0.5013888888888889 0.5013888888888889 0.5013888888888889 0.5013888888888889 0.5013888888888889 0.5013888888888889 0.5013888888888889 0.5013888888888889 0.5013888888888889 0.5013888888888889 0.4993055555555556 0.4798611111111111 0.45 0.4013888888888889 0.31527777777777777 0.23472222222222225 0.1902777777777777 0.15208333333333332 0.10833333333333334 0.09583333333333334 0.09375 0.09930555555555556 0.10347222222222224 0.10694444444444444 0.10902777777777778 0.11388888888888887 0.12013888888888888 0.12777777777777774 0.13680555555555554 0.13958333333333334 0.14027777777777778 0.14027777777777778,0.799074074074074 0.7953703703703704 0.7916666666666666 0.7898148148148147 0.7898148148148147 0.7888888888888889 0.7888888888888889 0.7888888888888889 0.7888888888888889 0.7888888888888889 0.7888888888888889 0.7888888888888889 0.7888888888888889 0.7888888888888889 0.7888888888888889 0.7888888888888889 0.7888888888888889 0.7888888888888889 0.7888888888888889 0.7888888888888889 0.7888888888888889 0.7888888888888889 0.7888888888888889 0.7861111111111111 0.7592592592592593 0.7157407407407408 0.6462962962962964 0.5240740740740741 0.4138888888888889 0.3537037037037037 0.2851851851851852 0.16759259259259265 0.11388888888888893 0.09351851851851856 0.09166666666666667 0.0907407407407408 0.0907407407407408 0.09166666666666667 0.09444444444444444 0.09907407407407408 0.10555555555555553 0.1166666666666667 0.12037037037037035 0.125 0.12685185185185188,0.0 20.0 40.0 60.0 80.0 100.0 120.0 140.0 160.0 180.0 200.0 220.0 240.0 260.0 280.0 300.0 320.0 340.0 360.0 380.0 400.0 420.0 440.0 460.0 480.0 500.0 520.0 540.0 560.0 580.0 600.0 620.0 640.0 660.0 680.0 700.0 720.0 740.0 760.0 780.0 800.0 820.0 840.0 860.0 880.0
cb_08,23.0,enc_trial,stim,response,STEM students,1327.359999999986,enc_trial,1.0,23.0,s_sh_04_1,student_shared,fold-c,laptop stand,8.0,competing,far,paired,s_sh_04_1.jpg,,student-b1,STEM students,Fine Arts students,sub-52,1.0,1.0,1.0,0.0,0.5048611111111111 0.5027777777777778 0.4944444444444445 0.4513888888888889 0.3729166666666667 0.3118055555555556 0.25277777777777777 0.17569444444444446 0.13819444444444445 0.09583333333333334 0.075 0.05486111111111111 0.04930555555555555 0.04513888888888889 0.04444444444444445 0.04583333333333333 0.052083333333333336 0.06458333333333334 0.06805555555555555 0.06805555555555555 0.06805555555555555 0.06805555555555555 0.07013888888888889 0.07916666666666666 0.09375 0.10416666666666667 0.11180555555555556 0.11666666666666667 0.11736111111111112 0.11736111111111112,0.8268518518518518 0.8203703703703704 0.8046296296296296 0.7416666666666667 0.625 0.5416666666666667 0.4611111111111112 0.3583333333333333 0.2944444444444444 0.1962962962962963 0.1333333333333333 0.051851851851851816 0.012962962962962954 0.0009259259259258855 0.0009259259259258855 0.0009259259259258855 0.0009259259259258855 0.0009259259259258855 0.0009259259259258855 0.0009259259259258855 0.0009259259259258855 0.0018518518518518825 0.00462962962962965 0.021296296296296258 0.04907407407407405 0.07037037037037043 0.08796296296296291 0.10092592592592596 0.10370370370370374 0.10462962962962964,757.6199999999952 777.6199999999952 797.6199999999952 817.6199999999952 837.6199999999952 857.6199999999952 877.6199999999952 897.6199999999952 917.6199999999952 937.6199999999952 957.6199999999952 977.6199999999952 997.6199999999952 1017.6199999999952 1037.6199999999953 1057.6199999999953 1077.6199999999953 1097.6199999999953 1117.6199999999953 1137.6199999999953 1157.6199999999953 1177.6199999999953 1197.6199999999953 1217.6199999999953 1237.6199999999953 1257.6199999999953 1277.6199999999953 1297.6199999999953 1317.6199999999953 1337.6199999999953
cb_08,24.0,enc_trial,stim,response,Fine Arts students,998.5599999999976,enc_trial,1.0,24.0,s_a_14_2,student_art,fold-c,guitar pick,8.0,unique,far,paired,s_a_14_2.jpg,art,student-b1,STEM students,Fine Arts students,sub-52,1.0,1.0,1.0,1.0,0.50625 0.5055555555555555 0.5055555555555555 0.5048611111111111 0.5048611111111111 0.5048611111111111 0.5048611111111111 0.5048611111111111 0.5048611111111111 0.5048611111111111 0.5048611111111111 0.5048611111111111 0.5048611111111111 0.5048611111111111 0.5048611111111111 0.5048611111111111 0.5048611111111111 0.5048611111111111 0.5048611111111111 0.5048611111111111 0.5048611111111111 0.5048611111111111 0.5048611111111111 0.5048611111111111 0.5048611111111111 0.5069444444444444 0.5229166666666667 0.5701388888888889 0.6131944444444445 0.69375 0.7270833333333333 0.75 0.7590277777777777 0.7645833333333333 0.7652777777777777 0.7659722222222223 0.7666666666666667 0.7694444444444445 0.7715277777777778 0.7756944444444445 0.7833333333333333 0.7951388888888888 0.8027777777777778 0.8069444444444445 0.8138888888888889 0.8194444444444444 0.8256944444444444 0.8340277777777778 0.8381944444444445,0.8194444444444444 0.8194444444444444 0.8194444444444444 0.8185185185185185 0.8185185185185185 0.8185185185185185 0.8185185185185185 0.8185185185185185 0.8185185185185185 0.8185185185185185 0.8185185185185185 0.8185185185185185 0.8185185185185185 0.8185185185185185 0.8185185185185185 0.8185185185185185 0.8185185185185185 0.8185185185185185 0.8185185185185185 0.8185185185185185 0.8185185185185185 0.8185185185185185 0.8185185185185185 0.8185185185185185 0.8175925925925926 0.8083333333333333 0.7685185185185185 0.6435185185185186 0.5398148148148147 0.39629629629629626 0.35 0.32685185185185184 0.3222222222222222 0.3185185185185185 0.3185185185185185 0.3203703703703704 0.3240740740740741 0.3277777777777777 0.3277777777777777 0.3240740740740741 0.312037037037037 0.2898148148148149 0.2685185185185185 0.2490740740740741 0.2138888888888889 0.1944444444444444 0.18148148148148147 0.16666666666666666 0.1601851851851852,42.44000000000233 62.44000000000233 82.44000000000233 102.44000000000231 122.44000000000231 142.4400000000023 162.4400000000023 182.44000000000236 202.44000000000236 222.44000000000236 242.44000000000236 262.4400000000023 282.4400000000023 302.4400000000023 322.4400000000023 342.4400000000023 362.44000000000227 382.44000000000227 402.44000000000227 422.44000000000227 442.44000000000227 462.44000000000227 482.44000000000227 502.44000000000227 522.4400000000023 542.4400000000023 562.4400000000023 582.4400000000022 602.4400000000022 622.4400000000022 642.4400000000022 662.4400000000022 682.4400000000022 702.4400000000023 722.4400000000023 742.4400000000023 762.4400000000023 782.4400000000023 802.4400000000023 822.4400000000023 842.4400000000023 862.4400000000023 882.4400000000023 902.4400000000024 922.4400000000024 942.4400000000024 962.4400000000024 982.4400000000024 1002.4400000000024
cb_08,25.0,enc_trial,stim,response,STEM students,1337.4400000000023,enc_trial,1.0,25.0,s_sh_18_1,student_shared,fold-c,wall calendar,8.0,competing,far,paired,s_sh_18_1.jpg,,student-b1,STEM students,Fine Arts students,sub-52,1.0,1.0,0.0,1.0,0.5048611111111111 0.5048611111111111 0.5069444444444444 0.5090277777777777 0.5104166666666666 0.5118055555555555 0.5125 0.5125 0.5111111111111111 0.4986111111111111 0.475 0.4083333333333333 0.3645833333333333 0.3229166666666667 0.3111111111111111 0.3055555555555556 0.30069444444444443 0.29444444444444445 0.2902777777777778 0.2861111111111111 0.2798611111111111 0.275 0.2722222222222222 0.2652777777777778 0.25069444444444444 0.2375 0.22013888888888888 0.1875 0.17430555555555555 0.16180555555555556 0.15555555555555556 0.14791666666666667 0.14375 0.1423611111111111,0.7944444444444445 0.7935185185185185 0.7898148148148147 0.7814814814814814 0.775 0.7712962962962963 0.7694444444444444 0.7675925925925926 0.7638888888888888 0.7425925925925926 0.7055555555555555 0.5935185185185186 0.5148148148148148 0.4101851851851852 0.3537037037037037 0.33333333333333337 0.3175925925925925 0.3027777777777778 0.29907407407407405 0.2972222222222223 0.2935185185185185 0.2898148148148149 0.2888888888888889 0.2861111111111111 0.28148148148148144 0.2768518518518519 0.27129629629629626 0.25555555555555554 0.2490740740740741 0.2388888888888889 0.2296296296296297 0.21111111111111114 0.19259259259259254 0.18888888888888888,684.8999999999943 704.8999999999942 724.8999999999942 744.8999999999942 764.8999999999942 784.8999999999942 804.8999999999942 824.8999999999942 844.8999999999942 864.8999999999942 884.8999999999942 904.8999999999944 924.8999999999944 944.8999999999944 964.8999999999944 984.8999999999944 1004.8999999999944 1024.8999999999942 1044.8999999999942 1064.8999999999942 1084.8999999999942 1104.8999999999942 1124.8999999999942 1144.8999999999942 1164.8999999999942 1184.8999999999942 1204.8999999999942 1224.8999999999942 1244.8999999999942 1264.8999999999942 1284.8999999999942 1304.8999999999942 1324.8999999999942 1344.8999999999942
cb_08,26.0,enc_trial,stim,response,Fine Arts students,987.8999999999942,enc_trial,1.0,26.0,s_a_15_2,student_art,fold-d,drum kit,8.0,unique,close,paired,s_a_15_2.jpg,art,student-b1,STEM students,Fine Arts students,sub-52,1.0,1.0,1.0,1.0,0.5069444444444444 0.5111111111111111 0.5215277777777778 0.5548611111111111 0.6180555555555556 0.6638888888888889 0.7159722222222222 0.7854166666666667 0.8173611111111111 0.825 0.8263888888888888 0.8263888888888888 0.8263888888888888 0.8263888888888888 0.8263888888888888 0.8270833333333333 0.8270833333333333 0.8270833333333333 0.8277777777777777 0.8305555555555556 0.8340277777777778 0.8409722222222222 0.8416666666666667,0.7851851851851852 0.7805555555555556 0.7611111111111111 0.6805555555555556 0.525 0.4092592592592592 0.3064814814814815 0.2203703703703704 0.20277777777777767 0.20092592592592595 0.20092592592592595 0.20092592592592595 0.20092592592592595 0.20092592592592595 0.20092592592592595 0.20092592592592595 0.2 0.2 0.19814814814814816 0.19259259259259254 0.18425925925925926 0.17222222222222228 0.1703703703703704,557.6199999999953 577.6199999999952 597.6199999999952 617.6199999999952 637.6199999999952 657.6199999999952 677.6199999999952 697.6199999999952 717.6199999999952 737.6199999999952 757.6199999999952 777.6199999999952 797.6199999999952 817.6199999999952 837.6199999999952 857.6199999999952 877.6199999999952 897.6199999999952 917.6199999999952 937.6199999999952 957.6199999999952 977.6199999999952 997.6199999999952
cb_08,27.0,enc_trial,stim,response,Fine Arts students,1442.5199999999895,enc_trial,1.0,27.0,s_sh_16_1,student_shared,fold-a,stapler,8.0,competing,close,paired,s_sh_16_1.jpg,,student-b1,STEM students,Fine Arts students,sub-52,0.0,0.0,0.0,1.0,0.4895833333333333 0.4895833333333333 0.4895833333333333 0.4895833333333333 0.4895833333333333 0.4895833333333333 0.4895833333333333 0.4895833333333333 0.4895833333333333 0.4895833333333333 0.4895833333333333 0.4895833333333333 0.4895833333333333 0.4895833333333333 0.4895833333333333 0.4895833333333333 0.4895833333333333 0.4895833333333333 0.4895833333333333 0.4895833333333333 0.4895833333333333 0.4895833333333333 0.4895833333333333 0.4895833333333333 0.4895833333333333 0.4895833333333333 0.4895833333333333 0.4895833333333333 0.4895833333333333 0.4895833333333333 0.4895833333333333 0.4895833333333333 0.4895833333333333 0.4895833333333333 0.4875 0.4819444444444445 0.4513888888888889 0.38125 0.3263888888888889 0.2798611111111111 0.2361111111111111 0.22013888888888888 0.2152777777777778 0.21319444444444444 0.2111111111111111 0.2111111111111111 0.2111111111111111 0.2076388888888889 0.20347222222222225 0.2 0.19652777777777766 0.19652777777777766 0.19583333333333333 0.1951388888888889 0.19791666666666666 0.21041666666666667 0.28125 0.4201388888888889 0.5125 0.6006944444444444 0.7298611111111111 0.7923611111111111 0.8270833333333333 0.8347222222222223 0.8388888888888889 0.8388888888888889 0.8388888888888889 0.8388888888888889 0.8388888888888889,0.8092592592592592 0.8092592592592592 0.8092592592592592 0.8092592592592592 0.8092592592592592 0.8092592592592592 0.8092592592592592 0.8092592592592592 0.8092592592592592 0.8092592592592592 0.8092592592592592 0.8092592592592592 0.8092592592592592 0.8092592592592592 0.8092592592592592 0.8092592592592592 0.8092592592592592 0.8092592592592592 0.8092592592592592 0.8092592592592592 0.8092592592592592 0.8092592592592592 0.8092592592592592 0.8092592592592592 0.8092592592592592 0.8092592592592592 0.8092592592592592 0.8092592592592592 0.8092592592592592 0.8092592592592592 0.8092592592592592 0.8092592592592592 0.8092592592592592 0.8092592592592592 0.8074074074074074 0.7972222222222223 0.7453703703703703 0.6277777777777778 0.5342592592592592 0.4546296296296296 0.3842592592592593 0.3537037037037037 0.3407407407407408 0.3314814814814815 0.3222222222222222 0.3194444444444444 0.3148148148148148 0.3046296296296296 0.2925925925925926 0.2805555555555556 0.2685185185185185 0.2629629629629629 0.2574074074074074 0.2509259259259259 0.23703703703703705 0.2277777777777777 0.20740740740740726 0.1907407407407408 0.18703703703703692 0.18703703703703692 0.18703703703703692 0.18703703703703692 0.19166666666666665 0.1953703703703704 0.19907407407407407 0.20185185185185184 0.20277777777777767 0.20277777777777767 0.2046296296296296,0.0 20.0 40.0 60.0 80.0 100.0 120.0 140.0 160.0 180.0 200.0 220.0 240.0 260.0 280.0 300.0 320.0 340.0 360.0 380.0 400.0 420.0 440.0 460.0 480.0 500.0 520.0 540.0 560.0 580.0 600.0 620.0 640.0 660.0 680.0 700.0 720.0 740.0 760.0 780.0 800.0 820.0 840.0 860.0 880.0 900.0 920.0 940.0 960.0 980.0 1000.0 1020.0 1040.0 1060.0 1080.0 1100.0 1120.0 1140.0 1160.0 1180.0 1200.0 1220.0 1240.0 1260.0 1280.0 1300.0 1320.0 1340.0 1360.0
cb_08,28.0,enc_trial,stim,response,Fine Arts students,1145.3399999999965,enc_trial,1.0,28.0,s_sh_11_1,student_shared,fold-b-single,pencil case,8.0,competing,,single,s_sh_11_1.jpg,,student-b1,STEM students,Fine Arts students,sub-52,1.0,,1.0,,0.4972222222222222 0.5006944444444444 0.5194444444444445 0.55 0.6111111111111112 0.6479166666666667 0.6881944444444444 0.7534722222222222 0.8145833333333333 0.8388888888888889 0.8486111111111111 0.8513888888888889 0.8527777777777777 0.8541666666666666 0.8576388888888888 0.8604166666666667 0.8625 0.8652777777777778 0.8666666666666667 0.8673611111111111 0.8673611111111111 0.8680555555555556 0.8680555555555556 0.86875,0.8018518518518518 0.7935185185185185 0.7481481481481482 0.6768518518518518 0.5268518518518519 0.4259259259259259 0.3277777777777777 0.1953703703703704 0.10925925925925928 0.08981481481481479 0.08518518518518514 0.08518518518518514 0.08611111111111114 0.08796296296296291 0.08981481481481479 0.09166666666666667 0.09351851851851856 0.09537037037037033 0.09629629629629632 0.0981481481481481 0.09999999999999998 0.10370370370370374 0.10648148148148152 0.1074074074074074,654.6000000000057 674.6000000000057 694.6000000000058 714.6000000000058 734.6000000000058 754.6000000000058 774.6000000000058 794.6000000000058 814.6000000000058 834.6000000000058 854.6000000000058 874.6000000000058 894.6000000000058 914.6000000000056 934.6000000000056 954.6000000000056 974.6000000000056 994.6000000000056 1014.6000000000056 1034.6000000000058 1054.6000000000058 1074.6000000000058 1094.6000000000058 1114.6000000000058
cb_08,29.0,enc_trial,stim,response,Fine Arts students,1372.7399999999907,enc_trial,1.0,29.0,s_sh_13_1,student_shared,fold-b-single,index cards,8.0,competing,,single,s_sh_13_1.jpg,,student-b1,STEM students,Fine Arts students,sub-52,1.0,,1.0,,0.4986111111111111 0.4986111111111111 0.4972222222222222 0.4972222222222222 0.4958333333333334 0.4951388888888889 0.4944444444444445 0.49375 0.49375 0.49375 0.49375 0.49375 0.49375 0.49375 0.49375 0.49375 0.49375 0.49375 0.49375 0.49375 0.49375 0.49375 0.49375 0.49375 0.49375 0.49375 0.49375 0.49375 0.49375 0.4951388888888889 0.5055555555555555 0.5277777777777778 0.5493055555555556 0.5777777777777777 0.6243055555555556 0.6534722222222222 0.6965277777777777 0.7326388888888888 0.7486111111111111 0.75625 0.7569444444444444 0.7576388888888889 0.7576388888888889 0.7576388888888889 0.7576388888888889 0.7583333333333333 0.7611111111111111 0.7694444444444445 0.7777777777777778 0.7909722222222222 0.8194444444444444 0.8479166666666667 0.8590277777777777 0.8638888888888889 0.8645833333333334,0.812037037037037 0.812037037037037 0.8111111111111111 0.8101851851851851 0.8092592592592592 0.8083333333333333 0.8074074074074074 0.8064814814814815 0.8064814814814815 0.8064814814814815 0.8064814814814815 0.8064814814814815 0.8064814814814815 0.8064814814814815 0.8064814814814815 0.8064814814814815 0.8064814814814815 0.8064814814814815 0.8064814814814815 0.8064814814814815 0.8064814814814815 0.8064814814814815 0.8064814814814815 0.8064814814814815 0.8064814814814815 0.8064814814814815 0.8064814814814815 0.8064814814814815 0.8055555555555556 0.799074074074074 0.7657407407407407 0.6861111111111111 0.6138888888888889 0.5333333333333333 0.4203703703703704 0.3537037037037037 0.2703703703703704 0.2138888888888889 0.1944444444444444 0.18611111111111112 0.18425925925925926 0.18425925925925926 0.18425925925925926 0.18425925925925926 0.18425925925925926 0.18425925925925926 0.18333333333333326 0.17962962962962958 0.1777777777777778 0.17407407407407405 0.1685185185185185 0.1620370370370371 0.1601851851851852 0.1592592592592592 0.1592592592592592,290.91999999998365 310.91999999998365 330.91999999998365 350.9199999999836 370.91999999998365 390.91999999998365 410.91999999998365 430.91999999998365 450.91999999998365 470.91999999998365 490.91999999998365 510.91999999998365 530.9199999999837 550.9199999999837 570.9199999999837 590.9199999999837 610.9199999999837 630.9199999999837 650.9199999999837 670.9199999999837 690.9199999999838 710.9199999999838 730.9199999999838 750.9199999999838 770.9199999999838 790.9199999999838 810.9199999999838 830.9199999999838 850.9199999999838 870.9199999999838 890.9199999999838 910.9199999999837 930.9199999999837 950.9199999999837 970.9199999999837 990.9199999999837 1010.9199999999837 1030.9199999999837 1050.9199999999837 1070.9199999999837 1090.9199999999837 1110.9199999999837 1130.9199999999835 1150.9199999999835 1170.9199999999835 1190.9199999999835 1210.9199999999835 1230.9199999999835 1250.9199999999835 1270.9199999999835 1290.9199999999835 1310.9199999999835 1330.9199999999835 1350.9199999999835 1370.9199999999835
cb_08,30.0,enc_trial,stim,response,Fine Arts students,1903.1599999999744,enc_trial,1.0,30.0,s_sh_09_2,student_shared,fold-c,paper clips,8.0,competing,far,paired,s_sh_09_2.jpg,,student-b1,STEM students,Fine Arts students,sub-52,1.0,1.0,0.0,1.0,0.5006944444444444 0.5006944444444444 0.5 0.5 0.4993055555555556 0.4979166666666667 0.4965277777777778 0.4972222222222222 0.5 0.5027777777777778 0.5055555555555555 0.5055555555555555 0.4979166666666667 0.4902777777777778 0.4819444444444445 0.4798611111111111 0.4798611111111111 0.4798611111111111 0.4791666666666667 0.4743055555555555 0.4625 0.4305555555555556 0.3972222222222222 0.3743055555555556 0.33125 0.30486111111111114 0.2847222222222222 0.25 0.2381944444444445 0.22916666666666666 0.2243055555555556 0.2222222222222222 0.2222222222222222 0.2222222222222222 0.2222222222222222 0.2263888888888889 0.2395833333333333 0.3263888888888889 0.4083333333333333 0.49375 0.5847222222222223 0.7069444444444445 0.7770833333333333 0.7965277777777777 0.8215277777777777 0.8340277777777778 0.8395833333333333 0.8423611111111111 0.8430555555555556,0.8018518518518518 0.8018518518518518 0.8009259259259259 0.7972222222222223 0.787037037037037 0.7759259259259259 0.762962962962963 0.7425925925925926 0.7314814814814814 0.7194444444444444 0.7018518518518518 0.6851851851851851 0.6388888888888888 0.5962962962962963 0.5342592592592592 0.5092592592592593 0.4935185185185185 0.4796296296296296 0.4675925925925926 0.4564814814814815 0.4425925925925925 0.4120370370370371 0.3861111111111111 0.3703703703703704 0.33518518518518514 0.312037037037037 0.29166666666666663 0.25462962962962965 0.2398148148148148 0.2296296296296297 0.2231481481481481 0.21851851851851856 0.21759259259259256 0.21759259259259256 0.21666666666666667 0.2157407407407408 0.2148148148148148 0.21203703703703705 0.2064814814814815 0.1972222222222222 0.18796296296296305 0.18611111111111112 0.18425925925925926 0.18333333333333326 0.18240740740740746 0.18148148148148147 0.18148148148148147 0.1805555555555556 0.1805555555555556,915.219999999972 935.219999999972 955.219999999972 975.219999999972 995.219999999972 1015.219999999972 1035.2199999999718 1055.2199999999718 1075.2199999999718 1095.2199999999718 1115.2199999999718 1135.2199999999718 1155.2199999999718 1175.2199999999718 1195.2199999999718 1215.2199999999718 1235.2199999999718 1255.2199999999718 1275.2199999999718 1295.2199999999718 1315.2199999999718 1335.2199999999718 1355.2199999999718 1375.2199999999718 1395.2199999999718 1415.2199999999718 1435.2199999999718 1455.2199999999718 1475.2199999999718 1495.2199999999718 1515.2199999999718 1535.2199999999718 1555.2199999999718 1575.2199999999718 1595.2199999999718 1615.2199999999718 1635.2199999999718 1655.2199999999718 1675.2199999999718 1695.2199999999718 1715.2199999999718 1735.2199999999718 1755.2199999999718 1775.2199999999718 1795.2199999999718 1815.2199999999718 1835.2199999999718 1855.2199999999718 1875.2199999999718
cb_08,31.0,enc_trial,stim,response,STEM students,1330.640000000014,enc_trial,1.0,31.0,s_sh_23_1,student_shared,fold-a,ballpoint pen,8.0,competing,close,paired,s_sh_23_1.jpg,,student-b1,STEM students,Fine Arts students,sub-52,1.0,1.0,1.0,1.0,0.5229166666666667 0.5229166666666667 0.5222222222222223 0.5215277777777778 0.5215277777777778 0.5215277777777778 0.5215277777777778 0.5215277777777778 0.5215277777777778 0.5215277777777778 0.5215277777777778 0.5215277777777778 0.5215277777777778 0.5215277777777778 0.5215277777777778 0.5208333333333334 0.5208333333333334 0.5201388888888889 0.5201388888888889 0.5201388888888889 0.5201388888888889 0.5201388888888889 0.5194444444444445 0.5194444444444445 0.5166666666666667 0.5152777777777777 0.5131944444444444 0.5090277777777777 0.5034722222222222 0.4965277777777778 0.4888888888888889 0.4722222222222222 0.4555555555555556 0.4451388888888889 0.4298611111111112 0.4152777777777778 0.3881944444444445 0.3597222222222222 0.3423611111111111 0.3236111111111111 0.3090277777777778 0.29375 0.2847222222222222 0.28194444444444444 0.2791666666666667 0.275 0.26875 0.2652777777777778 0.2638888888888889 0.26319444444444445 0.2611111111111111 0.25972222222222224 0.2534722222222222 0.2465277777777778 0.23194444444444445 0.22013888888888888 0.1986111111111111 0.17569444444444446 0.16458333333333333 0.15555555555555556 0.1486111111111111 0.1486111111111111,0.8157407407407408 0.8157407407407408 0.8148148148148149 0.8138888888888889 0.8138888888888889 0.812962962962963 0.812962962962963 0.812962962962963 0.812962962962963 0.812962962962963 0.812962962962963 0.812962962962963 0.812962962962963 0.812962962962963 0.812962962962963 0.812962962962963 0.8111111111111111 0.8092592592592592 0.8092592592592592 0.8092592592592592 0.8092592592592592 0.8092592592592592 0.8092592592592592 0.8083333333333333 0.8046296296296296 0.8018518518518518 0.7972222222222223 0.7907407407407407 0.7824074074074074 0.7731481481481481 0.7620370370370371 0.7425925925925926 0.7222222222222222 0.7046296296296296 0.6759259259259259 0.6481481481481481 0.5925925925925926 0.5324074074074074 0.4907407407407407 0.4472222222222222 0.412962962962963 0.3814814814814815 0.3638888888888889 0.3564814814814815 0.3490740740740741 0.3407407407407408 0.3277777777777777 0.3194444444444444 0.3148148148148148 0.3111111111111111 0.30740740740740746 0.3018518518518518 0.2935185185185185 0.2842592592592592 0.2703703703703704 0.2592592592592593 0.2379629629629629 0.2138888888888889 0.20277777777777767 0.19259259259259254 0.18518518518518529 0.18425925925925926,121.22000000000116 141.22000000000116 161.22000000000116 181.2200000000012 201.2200000000012 221.2200000000012 241.2200000000012 261.22000000000116 281.22000000000116 301.22000000000116 321.22000000000116 341.22000000000116 361.2200000000012 381.2200000000012 401.2200000000012 421.2200000000012 441.2200000000012 461.2200000000012 481.2200000000012 501.2200000000012 521.2200000000012 541.2200000000012 561.2200000000012 581.2200000000012 601.2200000000012 621.2200000000012 641.2200000000012 661.2200000000012 681.2200000000012 701.2200000000012 721.2200000000012 741.2200000000012 761.2200000000012 781.2200000000012 801.2200000000012 821.2200000000012 841.2200000000012 861.2200000000012 881.2200000000012 901.2200000000012 921.2200000000012 941.2200000000012 961.2200000000012 981.2200000000012 1001.2200000000012 1021.2200000000012 1041.2200000000012 1061.2200000000012 1081.2200000000012 1101.2200000000012 1121.2200000000012 1141.2200000000012 1161.2200000000012 1181.2200000000012 1201.2200000000012 1221.2200000000012 1241.2200000000012 1261.2200000000012 1281.2200000000012 1301.2200000000012 1321.2200000000012 1341.2200000000012
cb_08,32.0,enc_trial,stim,response,Fine Arts students,1323.2000000000114,enc_trial,1.0,32.0,s_a_12_1,student_art,fold-c,saxophone,8.0,unique,far,paired,s_a_12_1.jpg,art,student-b1,STEM students,Fine Arts students,sub-52,1.0,1.0,1.0,1.0,0.5006944444444444 0.5006944444444444 0.5006944444444444 0.5027777777777778 0.5090277777777777 0.53125 0.5625 0.6173611111111111 0.6604166666666667 0.7125 0.7361111111111112 0.7583333333333333 0.7666666666666667 0.7715277777777778 0.7736111111111111 0.775 0.7756944444444445 0.7756944444444445 0.7756944444444445 0.7756944444444445 0.7756944444444445 0.7763888888888889 0.7791666666666667 0.7854166666666667 0.7986111111111112 0.8104166666666667 0.8118055555555556 0.8125 0.8125 0.8125 0.8125 0.8125 0.8125 0.8125 0.8125 0.8131944444444444 0.8131944444444444 0.8208333333333333 0.8277777777777777 0.8340277777777778 0.8388888888888889 0.8430555555555556 0.84375,0.8296296296296296 0.8296296296296296 0.8268518518518518 0.8203703703703704 0.7925925925925926 0.7101851851851853 0.6222222222222222 0.4824074074074074 0.3925925925925926 0.3111111111111111 0.28796296296296303 0.2731481481481481 0.2703703703703704 0.2666666666666667 0.26481481481481484 0.2629629629629629 0.2629629629629629 0.2629629629629629 0.2629629629629629 0.2601851851851852 0.2592592592592593 0.25648148148148153 0.25462962962962965 0.2509259259259259 0.2435185185185185 0.2342592592592593 0.2333333333333333 0.2333333333333333 0.2333333333333333 0.2333333333333333 0.2333333333333333 0.2333333333333333 0.2333333333333333 0.2333333333333333 0.2324074074074074 0.2314814814814815 0.2277777777777777 0.2148148148148148 0.2055555555555556 0.1962962962962963 0.18796296296296305 0.17962962962962958 0.17685185185185182,490.94000000000227 510.94000000000227 530.9400000000023 550.9400000000023 570.9400000000022 590.9400000000022 610.9400000000022 630.9400000000022 650.9400000000022 670.9400000000022 690.9400000000023 710.9400000000023 730.9400000000023 750.9400000000023 770.9400000000023 790.9400000000023 810.9400000000023 830.9400000000023 850.9400000000023 870.9400000000023 890.9400000000023 910.9400000000024 930.9400000000024 950.9400000000024 970.9400000000024 990.9400000000024 1010.9400000000024 1030.9400000000023 1050.9400000000023 1070.9400000000023 1090.9400000000023 1110.9400000000023 1130.9400000000023 1150.9400000000023 1170.9400000000023 1190.9400000000023 1210.9400000000023 1230.9400000000023 1250.9400000000023 1270.9400000000023 1290.9400000000023 1310.9400000000023 1330.9400000000023
cb_08,33.0,enc_trial,stim,response,Fine Arts students,1219.7799999999988,enc_trial,1.0,33.0,s_sh_16_2,student_shared,fold-a,stapler,8.0,competing,close,paired,s_sh_16_2.jpg,,student-b1,STEM students,Fine Arts students,sub-52,0.0,0.0,0.0,1.0,0.5027777777777778 0.5020833333333333 0.5020833333333333 0.5006944444444444 0.5006944444444444 0.5006944444444444 0.5006944444444444 0.5 0.5 0.5 0.5 0.5 0.5 0.5 0.5 0.5 0.5 0.5 0.5 0.5 0.5 0.5 0.5 0.5 0.5 0.5 0.5 0.5034722222222222 0.5104166666666666 0.5305555555555556 0.5548611111111111 0.6 0.6388888888888888 0.69375 0.7277777777777777 0.7409722222222223 0.7534722222222222 0.7763888888888889 0.7965277777777777 0.8041666666666667 0.8083333333333333 0.8152777777777778 0.8236111111111111 0.8270833333333333 0.83125 0.8340277777777778 0.8361111111111111 0.8388888888888889 0.8409722222222222 0.8416666666666667 0.8416666666666667 0.8416666666666667 0.8416666666666667 0.8416666666666667 0.8416666666666667 0.8416666666666667,0.8027777777777778 0.8018518518518518 0.8009259259259259 0.8009259259259259 0.8 0.8 0.8 0.8 0.8 0.8 0.8 0.8 0.8 0.8 0.8 0.8 0.8 0.8 0.8 0.8 0.8 0.8 0.8 0.8 0.799074074074074 0.7981481481481482 0.7935185185185185 0.775 0.75 0.6990740740740741 0.6314814814814815 0.5277777777777778 0.4629629629629629 0.3814814814814815 0.3287037037037037 0.3111111111111111 0.29814814814814816 0.28240740740740744 0.27222222222222225 0.2675925925925926 0.26388888888888884 0.2574074074074074 0.2509259259259259 0.24722222222222226 0.2425925925925925 0.2379629629629629 0.2305555555555555 0.21944444444444444 0.20925925925925928 0.20370370370370366 0.19907407407407407 0.19351851851851853 0.1898148148148148 0.18888888888888888 0.18703703703703692 0.18611111111111112,121.22000000000116 141.22000000000116 161.22000000000116 181.2200000000012 201.2200000000012 221.2200000000012 241.2200000000012 261.22000000000116 281.22000000000116 301.22000000000116 321.22000000000116 341.22000000000116 361.2200000000012 381.2200000000012 401.2200000000012 421.2200000000012 441.2200000000012 461.2200000000012 481.2200000000012 501.2200000000012 521.2200000000012 541.2200000000012 561.2200000000012 581.2200000000012 601.2200000000012 621.2200000000012 641.2200000000012 661.2200000000012 681.2200000000012 701.2200000000012 721.2200000000012 741.2200000000012 761.2200000000012 781.2200000000012 801.2200000000012 821.2200000000012 841.2200000000012 861.2200000000012 881.2200000000012 901.2200000000012 921.2200000000012 941.2200000000012 961.2200000000012 981.2200000000012 1001.2200000000012 1021.2200000000012 1041.2200000000012 1061.2200000000012 1081.2200000000012 1101.2200000000012 1121.2200000000012 1141.2200000000012 1161.2200000000012 1181.2200000000012 1201.2200000000012 1221.2200000000012
cb_08,34.0,enc_trial,stim,response,Fine Arts students,1481.3999999999942,enc_trial,1.0,34.0,s_sh_23_2,student_shared,fold-a,ballpoint pen,8.0,competing,close,paired,s_sh_23_2.jpg,,student-b1,STEM students,Fine Arts students,sub-52,1.0,1.0,1.0,1.0,0.50625 0.5069444444444444 0.5097222222222222 0.5118055555555555 0.5138888888888888 0.5166666666666667 0.5194444444444445 0.5236111111111111 0.5284722222222222 0.5368055555555555 0.5618055555555556 0.6097222222222223 0.6458333333333334 0.6854166666666667 0.7381944444444445 0.7756944444444445 0.7902777777777777 0.8048611111111111 0.8097222222222222 0.8159722222222222 0.8194444444444444 0.8222222222222222 0.8236111111111111 0.8243055555555555 0.8270833333333333 0.8291666666666667 0.83125 0.8333333333333334 0.8340277777777778 0.8361111111111111 0.8375 0.8395833333333333 0.8416666666666667 0.8423611111111111 0.8423611111111111,0.7898148148148147 0.7842592592592592 0.7731481481481481 0.7675925925925926 0.7601851851851852 0.7527777777777778 0.7407407407407407 0.7185185185185186 0.7027777777777777 0.6851851851851851 0.6388888888888888 0.5564814814814815 0.4953703703703704 0.43333333333333335 0.3648148148148148 0.32685185185185184 0.3138888888888889 0.29814814814814816 0.29074074074074074 0.2787037037037037 0.2731481481481481 0.2657407407407407 0.2620370370370371 0.2574074074074074 0.2490740740740741 0.2407407407407407 0.2351851851851852 0.22685185185185186 0.21944444444444444 0.20925925925925928 0.20092592592592595 0.1898148148148148 0.18333333333333326 0.1805555555555556 0.17962962962962958,800.0400000000079 820.0400000000079 840.0400000000079 860.0400000000079 880.0400000000079 900.0400000000079 920.0400000000079 940.0400000000079 960.0400000000079 980.0400000000079 1000.0400000000079 1020.0400000000079 1040.040000000008 1060.040000000008 1080.040000000008 1100.040000000008 1120.040000000008 1140.040000000008 1160.040000000008 1180.040000000008 1200.040000000008 1220.040000000008 1240.040000000008 1260.040000000008 1280.040000000008 1300.040000000008 1320.040000000008 1340.040000000008 1360.040000000008 1380.040000000008 1400.040000000008 1420.040000000008 1440.040000000008 1460.040000000008 1480.040000000008
cb_08,35.0,enc_trial,stim,response,Fine Arts students,1375.8399999999967,enc_trial,1.0,35.0,s_sh_20_2,student_shared,fold-c,tape,8.0,competing,far,paired,s_sh_20_2.jpg,,student-b1,STEM students,Fine Arts students,sub-52,1.0,1.0,1.0,1.0,0.5034722222222222 0.5027777777777778 0.5020833333333333 0.5020833333333333 0.5006944444444444 0.4993055555555556 0.4986111111111111 0.49375 0.4923611111111112 0.4909722222222222 0.4902777777777778 0.4902777777777778 0.4902777777777778 0.4902777777777778 0.4902777777777778 0.4902777777777778 0.4902777777777778 0.4902777777777778 0.4902777777777778 0.4895833333333333 0.4895833333333333 0.4875 0.4854166666666666 0.4840277777777778 0.4777777777777778 0.4722222222222222 0.4652777777777778 0.4506944444444445 0.4493055555555556 0.4576388888888889 0.5 0.5472222222222223 0.5743055555555555 0.6013888888888889 0.6388888888888888 0.6618055555555555 0.6944444444444444 0.7298611111111111 0.7465277777777778 0.7590277777777777 0.7756944444444445 0.7958333333333333 0.8118055555555556 0.8256944444444444 0.8402777777777778 0.85 0.8583333333333333 0.86875 0.8708333333333333 0.8722222222222222 0.8722222222222222 0.8722222222222222 0.8722222222222222,0.8 0.8 0.799074074074074 0.7981481481481482 0.7962962962962963 0.7935185185185185 0.7907407407407407 0.7814814814814814 0.7768518518518519 0.7731481481481481 0.7703703703703704 0.7703703703703704 0.7703703703703704 0.7703703703703704 0.7703703703703704 0.7694444444444444 0.7694444444444444 0.7694444444444444 0.7694444444444444 0.7694444444444444 0.7694444444444444 0.7666666666666666 0.762962962962963 0.7601851851851852 0.749074074074074 0.737037037037037 0.7185185185185186 0.6388888888888888 0.5953703703703703 0.5435185185185185 0.4675925925925926 0.4027777777777778 0.3666666666666667 0.3305555555555556 0.2833333333333333 0.2629629629629629 0.2444444444444445 0.2287037037037037 0.22129629629629632 0.2157407407407408 0.20740740740740726 0.19907407407407407 0.1907407407407408 0.18333333333333326 0.17407407407407405 0.16759259259259265 0.1592592592592592 0.14629629629629626 0.1425925925925926 0.14074074074074072 0.13981481481481484 0.13981481481481484 0.13888888888888884,260.62000000002445 280.62000000002445 300.62000000002445 320.62000000002445 340.62000000002445 360.6200000000245 380.6200000000245 400.6200000000245 420.6200000000245 440.6200000000245 460.6200000000245 480.6200000000245 500.6200000000245 520.6200000000243 540.6200000000243 560.6200000000243 580.6200000000243 600.6200000000243 620.6200000000243 640.6200000000243 660.6200000000243 680.6200000000243 700.6200000000244 720.6200000000244 740.6200000000244 760.6200000000244 780.6200000000244 800.6200000000244 820.6200000000244 840.6200000000244 860.6200000000244 880.6200000000244 900.6200000000244 920.6200000000244 940.6200000000244 960.6200000000244 980.6200000000244 1000.6200000000244 1020.6200000000244 1040.6200000000244 1060.6200000000244 1080.6200000000244 1100.6200000000244 1120.6200000000244 1140.6200000000247 1160.6200000000247 1180.6200000000247 1200.6200000000247 1220.6200000000247 1240.6200000000247 1260.6200000000247 1280.6200000000247 1300.6200000000247
cb_08,36.0,enc_trial,stim,response,STEM students,1253.5199999999895,enc_trial,1.0,36.0,s_s_03_1,student_stem,fold-e-single,petri dish,8.0,unique,,single,s_s_03_1.jpg,stem,student-b1,STEM students,Fine Arts students,sub-52,1.0,,1.0,,0.50625 0.50625 0.50625 0.50625 0.50625 0.50625 0.50625 0.50625 0.50625 0.50625 0.50625 0.50625 0.50625 0.50625 0.50625 0.50625 0.50625 0.50625 0.50625 0.5055555555555555 0.5055555555555555 0.5055555555555555 0.5055555555555555 0.5055555555555555 0.5055555555555555 0.5055555555555555 0.5055555555555555 0.5048611111111111 0.5041666666666667 0.5034722222222222 0.5 0.4923611111111112 0.4833333333333333 0.4743055555555555 0.4611111111111112 0.4548611111111111 0.4527777777777778 0.4486111111111111 0.4444444444444444 0.4368055555555556 0.4326388888888889 0.42291666666666666 0.4166666666666667 0.4118055555555555 0.3986111111111112 0.3576388888888889 0.325 0.29444444444444445 0.28194444444444444 0.2673611111111111 0.2590277777777778 0.2493055555555556 0.2423611111111111 0.2340277777777777 0.2152777777777778 0.19583333333333333 0.18472222222222226 0.17708333333333334 0.17569444444444446 0.17222222222222222 0.16666666666666666 0.16111111111111112 0.16041666666666668,0.8212962962962963 0.8212962962962963 0.8203703703703704 0.8185185185185185 0.8166666666666667 0.8157407407407408 0.8157407407407408 0.8148148148148149 0.8148148148148149 0.8148148148148149 0.8148148148148149 0.8148148148148149 0.8148148148148149 0.8148148148148149 0.8148148148148149 0.8148148148148149 0.8148148148148149 0.8148148148148149 0.8148148148148149 0.8148148148148149 0.8148148148148149 0.8148148148148149 0.8148148148148149 0.8148148148148149 0.8148148148148149 0.8148148148148149 0.8148148148148149 0.8148148148148149 0.8138888888888889 0.812962962962963 0.8101851851851851 0.8037037037037037 0.7944444444444445 0.7833333333333333 0.7648148148148148 0.7546296296296297 0.75 0.7435185185185185 0.7361111111111112 0.7138888888888889 0.6907407407407408 0.6518518518518519 0.6222222222222222 0.587962962962963 0.5111111111111111 0.3833333333333333 0.3222222222222222 0.2898148148148149 0.2833333333333333 0.2777777777777778 0.27222222222222225 0.2620370370370371 0.2518518518518519 0.2388888888888889 0.2203703703703704 0.2 0.18888888888888888 0.1805555555555556 0.1777777777777778 0.17407407407407405 0.16759259259259265 0.1620370370370371 0.1611111111111111,18.17999999999301 38.179999999993015 58.17999999999302 78.17999999999303 98.17999999999304 118.17999999999304 138.17999999999304 158.17999999999304 178.17999999999302 198.17999999999302 218.17999999999302 238.17999999999302 258.1799999999931 278.1799999999931 298.17999999999313 318.17999999999313 338.17999999999313 358.17999999999313 378.17999999999313 398.17999999999313 418.17999999999313 438.17999999999313 458.17999999999313 478.17999999999313 498.17999999999313 518.1799999999931 538.1799999999931 558.1799999999931 578.1799999999931 598.1799999999931 618.1799999999931 638.1799999999931 658.1799999999931 678.1799999999931 698.1799999999931 718.1799999999931 738.1799999999931 758.1799999999931 778.1799999999931 798.1799999999931 818.1799999999931 838.1799999999931 858.1799999999931 878.1799999999931 898.1799999999931 918.1799999999932 938.1799999999932 958.1799999999932 978.1799999999932 998.1799999999932 1018.1799999999932 1038.1799999999932 1058.1799999999932 1078.1799999999932 1098.1799999999932 1118.1799999999932 1138.1799999999932 1158.1799999999932 1178.1799999999932 1198.1799999999932 1218.1799999999932 1238.1799999999932 1258.1799999999932
cb_08,37.0,enc_trial,stim,response,Fine Arts students,1319.859999999986,enc_trial,1.0,37.0,s_s_14_1,student_stem,fold-e-single,funnel,8.0,unique,,single,s_s_14_1.jpg,stem,student-b1,STEM students,Fine Arts students,sub-52,0.0,,1.0,,0.5159722222222223 0.5152777777777777 0.5145833333333333 0.5131944444444444 0.5131944444444444 0.5131944444444444 0.5131944444444444 0.5131944444444444 0.5131944444444444 0.5131944444444444 0.5131944444444444 0.5131944444444444 0.5131944444444444 0.5131944444444444 0.5131944444444444 0.5131944444444444 0.5131944444444444 0.5131944444444444 0.5131944444444444 0.5131944444444444 0.5131944444444444 0.5131944444444444 0.5131944444444444 0.5131944444444444 0.5131944444444444 0.5131944444444444 0.5131944444444444 0.5131944444444444 0.5131944444444444 0.5131944444444444 0.5131944444444444 0.5131944444444444 0.5131944444444444 0.5131944444444444 0.5131944444444444 0.5097222222222222 0.5013888888888889 0.4881944444444444 0.4916666666666666 0.5284722222222222 0.5729166666666666 0.65625 0.7118055555555556 0.7506944444444444 0.7881944444444444 0.8159722222222222 0.8354166666666667 0.8597222222222223 0.8673611111111111 0.8729166666666667 0.8763888888888889 0.8791666666666667 0.88125 0.88125 0.8826388888888889 0.8826388888888889 0.8826388888888889 0.8833333333333333 0.8833333333333333 0.8833333333333333,0.7935185185185185 0.7925925925925926 0.7916666666666666 0.7898148148148147 0.7898148148148147 0.7898148148148147 0.7898148148148147 0.7898148148148147 0.7898148148148147 0.7898148148148147 0.7898148148148147 0.7898148148148147 0.7898148148148147 0.7898148148148147 0.7898148148148147 0.7898148148148147 0.7898148148148147 0.7898148148148147 0.7898148148148147 0.7898148148148147 0.7898148148148147 0.7898148148148147 0.7898148148148147 0.7898148148148147 0.7898148148148147 0.7898148148148147 0.7898148148148147 0.7898148148148147 0.7898148148148147 0.7898148148148147 0.7898148148148147 0.7898148148148147 0.7898148148148147 0.7898148148148147 0.7898148148148147 0.7824074074074074 0.7601851851851852 0.662037037037037 0.5509259259259259 0.3694444444444445 0.2703703703703704 0.1694444444444444 0.12870370370370365 0.1074074074074074 0.09629629629629632 0.0907407407407408 0.08796296296296291 0.08611111111111114 0.08611111111111114 0.08611111111111114 0.08518518518518514 0.08425925925925926 0.08425925925925926 0.08981481481481479 0.09907407407407408 0.10555555555555553 0.10925925925925928 0.11111111111111116 0.11111111111111116 0.11203703703703703,0.0 20.0 40.0 60.0 80.0 100.0 120.0 140.0 160.0 180.0 200.0 220.0 240.0 260.0 280.0 300.0 320.0 340.0 360.0 380.0 400.0 420.0 440.0 460.0 480.0 500.0 520.0 540.0 560.0 580.0 600.0 620.0 640.0 660.0 680.0 700.0 720.0 740.0 760.0 780.0 800.0 820.0 840.0 860.0 880.0 900.0 920.0 940.0 960.0 980.0 1000.0 1020.0 1040.0 1060.0 1080.0 1100.0 1120.0 1140.0 1160.0 1180.0
cb_08,38.0,enc_trial,stim,response,Fine Arts students,1178.4400000000023,enc_trial,1.0,38.0,s_sh_04_2,student_shared,fold-c,laptop stand,8.0,competing,far,paired,s_sh_04_2.jpg,,student-b1,STEM students,Fine Arts students,sub-52,1.0,1.0,1.0,0.0,0.4951388888888889 0.4944444444444445 0.4916666666666666 0.4881944444444444 0.4840277777777778 0.4805555555555556 0.4763888888888889 0.4680555555555556 0.4625 0.45625 0.4527777777777778 0.4506944444444445 0.4486111111111111 0.44375 0.4256944444444444 0.4138888888888889 0.4027777777777778 0.3986111111111112 0.3979166666666665 0.3986111111111112 0.3986111111111112 0.3986111111111112 0.3986111111111112 0.3986111111111112 0.3986111111111112 0.3986111111111112 0.3986111111111112 0.4194444444444445 0.4833333333333333 0.6020833333333333 0.6631944444444444 0.7472222222222222 0.7854166666666667 0.8041666666666667 0.8125 0.8152777777777778 0.8173611111111111 0.81875 0.81875 0.8208333333333333 0.8236111111111111 0.8284722222222223 0.8319444444444445 0.8347222222222223 0.8368055555555556 0.8402777777777778 0.8430555555555556 0.8458333333333333 0.8472222222222222 0.8472222222222222,0.8027777777777778 0.7981481481481482 0.7916666666666666 0.7768518518518519 0.7611111111111111 0.749074074074074 0.737037037037037 0.7157407407407408 0.7 0.6796296296296296 0.6722222222222223 0.6648148148148147 0.6583333333333333 0.65 0.6157407407407407 0.5944444444444444 0.5759259259259261 0.5666666666666667 0.5666666666666667 0.5666666666666667 0.5666666666666667 0.5666666666666667 0.5666666666666667 0.5666666666666667 0.5666666666666667 0.5666666666666667 0.5666666666666667 0.5546296296296296 0.5148148148148148 0.4296296296296296 0.3805555555555555 0.325 0.3018518518518518 0.29166666666666663 0.2851851851851852 0.2796296296296297 0.2759259259259259 0.27222222222222225 0.27129629629629626 0.2666666666666667 0.2620370370370371 0.25 0.2398148148148148 0.2296296296296297 0.2157407407407408 0.19814814814814816 0.18796296296296305 0.17962962962962958 0.17685185185185182 0.17592592592592593,212.11999999999526 232.11999999999526 252.11999999999526 272.11999999999523 292.11999999999523 312.11999999999523 332.11999999999523 352.1199999999953 372.1199999999952 392.1199999999952 412.1199999999952 432.1199999999952 452.1199999999952 472.1199999999952 492.1199999999952 512.1199999999952 532.1199999999952 552.1199999999952 572.1199999999952 592.1199999999952 612.1199999999952 632.1199999999952 652.1199999999952 672.1199999999952 692.1199999999952 712.1199999999952 732.1199999999952 752.1199999999952 772.1199999999952 792.1199999999952 812.1199999999952 832.1199999999952 852.1199999999952 872.1199999999952 892.1199999999952 912.1199999999952 932.1199999999952 952.1199999999952 972.1199999999952 992.1199999999952 1012.1199999999952 1032.1199999999953 1052.1199999999953 1072.1199999999953 1092.1199999999953 1112.1199999999953 1132.1199999999953 1152.1199999999953 1172.1199999999953 1192.1199999999953
cb_08,39.0,enc_trial,stim,response,Fine Arts students,977.5,enc_trial,1.0,39.0,s_a_13_1,student_art,fold-e-single,violin,8.0,unique,,single,s_a_13_1.jpg,art,student-b1,STEM students,Fine Arts students,sub-52,1.0,,1.0,,0.4916666666666666 0.4916666666666666 0.4916666666666666 0.4916666666666666 0.4916666666666666 0.4916666666666666 0.4916666666666666 0.4916666666666666 0.4916666666666666 0.4916666666666666 0.4916666666666666 0.4916666666666666 0.4916666666666666 0.4916666666666666 0.4916666666666666 0.4916666666666666 0.4909722222222222 0.4909722222222222 0.4909722222222222 0.4909722222222222 0.4909722222222222 0.4909722222222222 0.4909722222222222 0.4909722222222222 0.4909722222222222 0.4909722222222222 0.4909722222222222 0.4909722222222222 0.4909722222222222 0.4944444444444445 0.5034722222222222 0.5423611111111111 0.5902777777777778 0.66875 0.7270833333333333 0.7555555555555555 0.7784722222222222 0.8006944444444445 0.8111111111111111 0.8201388888888889 0.8229166666666666 0.8277777777777777 0.8354166666666667 0.8430555555555556 0.8506944444444444 0.8534722222222222 0.8555555555555555 0.85625 0.8569444444444444,0.7925925925925926 0.7925925925925926 0.7925925925925926 0.7925925925925926 0.7925925925925926 0.7925925925925926 0.7925925925925926 0.7925925925925926 0.7925925925925926 0.7925925925925926 0.7925925925925926 0.7925925925925926 0.7925925925925926 0.7925925925925926 0.7925925925925926 0.7916666666666666 0.7898148148148147 0.7888888888888889 0.7888888888888889 0.7888888888888889 0.7888888888888889 0.7888888888888889 0.7888888888888889 0.7888888888888889 0.7888888888888889 0.7888888888888889 0.7888888888888889 0.7888888888888889 0.787962962962963 0.7814814814814814 0.7675925925925926 0.7037037037037037 0.6175925925925926 0.462037037037037 0.34444444444444444 0.2953703703703704 0.2666666666666667 0.24629629629629635 0.2398148148148148 0.2342592592592593 0.2314814814814815 0.225 0.2157407407407408 0.20925925925925928 0.2 0.1944444444444444 0.1898148148148148 0.18703703703703692 0.18518518518518529,18.17999999999301 38.179999999993015 58.17999999999302 78.17999999999303 98.17999999999304 118.17999999999304 138.17999999999304 158.17999999999304 178.17999999999302 198.17999999999302 218.17999999999302 238.17999999999302 258.1799999999931 278.1799999999931 298.17999999999313 318.17999999999313 338.17999999999313 358.17999999999313 378.17999999999313 398.17999999999313 418.17999999999313 438.17999999999313 458.17999999999313 478.17999999999313 498.17999999999313 518.1799999999931 538.1799999999931 558.1799999999931 578.1799999999931 598.1799999999931 618.1799999999931 638.1799999999931 658.1799999999931 678.1799999999931 698.1799999999931 718.1799999999931 738.1799999999931 758.1799999999931 778.1799999999931 798.1799999999931 818.1799999999931 838.1799999999931 858.1799999999931 878.1799999999931 898.1799999999931 918.1799999999932 938.1799999999932 958.1799999999932 978.1799999999932
cb_08,40.0,enc_trial,stim,response,Fine Arts students,1367.5599999999977,enc_trial,1.0,40.0,s_sh_18_2,student_shared,fold-c,wall calendar,8.0,competing,far,paired,s_sh_18_2.jpg,,student-b1,STEM students,Fine Arts students,sub-52,1.0,1.0,0.0,1.0,0.4993055555555556 0.5034722222222222 0.5326388888888889 0.58125 0.6395833333333333 0.6659722222222222 0.675 0.6784722222222223 0.6784722222222223 0.6784722222222223 0.6791666666666667 0.68125 0.6854166666666667 0.6944444444444444 0.7034722222222223 0.7111111111111111 0.7222222222222222 0.7416666666666667 0.7520833333333333 0.7666666666666667 0.775 0.7861111111111111 0.7930555555555555 0.8006944444444445 0.8104166666666667 0.81875 0.8215277777777777 0.8229166666666666 0.8229166666666666 0.8243055555555555 0.8256944444444444 0.8284722222222223 0.83125 0.8319444444444445 0.8319444444444445,0.7972222222222223 0.7675925925925926 0.7055555555555555 0.65 0.6092592592592593 0.5944444444444444 0.5916666666666667 0.5916666666666667 0.5916666666666667 0.5916666666666667 0.5916666666666667 0.5916666666666667 0.5888888888888889 0.5777777777777777 0.5666666666666667 0.5564814814814815 0.5398148148148147 0.5092592592592593 0.4879629629629629 0.4555555555555556 0.43333333333333335 0.4 0.3796296296296297 0.3592592592592593 0.3305555555555556 0.3027777777777778 0.2870370370370371 0.27222222222222225 0.26388888888888884 0.2509259259259259 0.2398148148148148 0.21851851851851856 0.20370370370370366 0.19351851851851853 0.19166666666666665,703.0799999999872 723.0799999999872 743.0799999999872 763.0799999999872 783.0799999999872 803.0799999999872 823.0799999999872 843.0799999999872 863.0799999999872 883.0799999999872 903.0799999999872 923.0799999999872 943.0799999999872 963.0799999999872 983.0799999999872 1003.0799999999872 1023.0799999999872 1043.0799999999872 1063.0799999999872 1083.0799999999872 1103.0799999999872 1123.0799999999872 1143.0799999999872 1163.0799999999872 1183.0799999999872 1203.0799999999872 1223.0799999999872 1243.0799999999872 1263.0799999999872 1283.0799999999872 1303.0799999999872 1323.0799999999872 1343.0799999999872 1363.0799999999872 1383.0799999999872
