Current Spreadsheet,Trial Number,Display,Screen,Response Type,Response,Reaction Time,display,block,block_trial,stimulus_id,expected_goal,fold,stimulus_name,c_group,condition,within_block_dist,paired_status,stimulus_path,expected_location,block_split,respStim_1,respStim_2,sub_label,acc,both_enc_acc,assoc_stim1_acc,assoc_stim2_acc,x_pos,y_pos,time_trajectories
cb_10,1.0,enc_trial,stim,response,STEM students,1725.2999999999884,enc_trial,1.0,1.0,s_sh_04_1,student_shared,fold-c-single,laptop stand,10.0,competing,,single,s_sh_04_1.jpg,,student-b1,STEM students,Fine Arts students,sub-06,1.0,,1.0,,0.4965277777777778 0.4965277777777778 0.4965277777777778 0.4958333333333334 0.4958333333333334 0.4951388888888889 0.4944444444444445 0.49375 0.49375 0.4930555555555556 0.4930555555555556 0.49375 0.4944444444444445 0.4958333333333334 0.4965277777777778 0.4986111111111111 0.5006944444444444 0.5034722222222222 0.5069444444444444 0.5111111111111111 0.5229166666666667 0.5305555555555556 0.5395833333333333 0.55 0.5631944444444444 0.5916666666666667 0.6055555555555555 0.6194444444444445 0.6298611111111111 0.6375 0.6395833333333333 0.6298611111111111 0.6076388888888888 0.575 0.53125 0.4388888888888889 0.39375 0.3506944444444444 0.3125 0.2763888888888889 0.22361111111111112 0.2083333333333333 0.1993055555555556 0.1930555555555556 0.18888888888888888 0.18194444444444444 0.17708333333333334 0.17083333333333334 0.1638888888888889 0.15625 0.15 0.15069444444444444 0.15416666666666667 0.16111111111111112 0.16944444444444445 0.18333333333333326 0.18541666666666667 0.18541666666666667 0.18541666666666667 0.18541666666666667 0.1840277777777778 0.1798611111111111 0.1736111111111111 0.16666666666666666 0.16041666666666668 0.15694444444444444,0.8518518518518519 0.8509259259259259 0.8481481481481481 0.8444444444444444 0.8407407407407408 0.8287037037037037 0.8203703703703704 0.812962962962963 0.8027777777777778 0.7925925925925926 0.7685185185185185 0.7537037037037038 0.7388888888888889 0.7240740740740741 0.7074074074074075 0.674074074074074 0.6546296296296297 0.6342592592592593 0.6148148148148148 0.5925925925925926 0.5435185185185185 0.5185185185185186 0.4907407407407407 0.4638888888888889 0.437037037037037 0.3861111111111111 0.3648148148148148 0.34351851851851856 0.325 0.3083333333333333 0.28240740740740744 0.2694444444444445 0.25648148148148153 0.2435185185185185 0.2296296296296297 0.2064814814814815 0.1972222222222222 0.1898148148148148 0.18518518518518529 0.18148148148148147 0.17500000000000004 0.17314814814814816 0.17222222222222228 0.17129629629629628 0.1694444444444444 0.16666666666666666 0.16481481481481486 0.1620370370370371 0.15833333333333333 0.15462962962962967 0.1509259259259259 0.15000000000000002 0.14907407407407405 0.14722222222222225 0.14629629629629626 0.1435185185185185 0.1425925925925926 0.1425925925925926 0.1425925925925926 0.1425925925925926 0.14166666666666672 0.13981481481481484 0.13703703703703707 0.1351851851851852 0.1342592592592593 0.1342592592592593,266.7999999999884 286.79999999998836 306.79999999998836 326.79999999998836 346.7999999999884 366.7999999999884 386.7999999999884 406.7999999999884 426.7999999999884 446.7999999999884 466.7999999999884 486.7999999999884 506.7999999999884 526.7999999999884 546.7999999999884 566.7999999999884 586.7999999999884 606.7999999999884 626.7999999999884 646.7999999999884 666.7999999999884 686.7999999999884 706.7999999999884 726.7999999999884 746.7999999999884 766.7999999999884 786.7999999999884 806.7999999999884 826.7999999999884 846.7999999999884 866.7999999999884 886.7999999999884 906.7999999999884 926.7999999999884 946.7999999999884 966.7999999999884 986.7999999999884 1006.7999999999884 1026.7999999999884 1046.7999999999884 1066.7999999999884 1086.7999999999884 1106.7999999999884 1126.7999999999886 1146.7999999999886 1166.7999999999886 1186.7999999999886 1206.7999999999886 1226.7999999999886 1246.7999999999886 1266.7999999999886 1286.7999999999886 1306.7999999999886 1326.7999999999886 1346.7999999999886 1366.7999999999886 1386.7999999999884 1406.7999999999884 1426.7999999999884 1446.7999999999884 1466.7999999999884 1486.7999999999884 1506.7999999999884 1526.7999999999884 1546.7999999999884 1566.7999999999884
cb_10,2.0,enc_trial,stim,response,STEM students,1662.1999999940165,enc_trial,1.0,2.0,s_s_15_1,student_stem,fold-c,jumper cables,10.0,unique,close,paired,s_s_15_1.jpg,stem,student-b1,STEM students,Fine Arts students,sub-06,1.0,1.0,1.0,1.0,0.4972222222222222 0.4972222222222222 0.4972222222222222 0.4972222222222222 0.4972222222222222 0.4979166666666667 0.4986111111111111 0.4993055555555556 0.5 0.5013888888888889 0.50625 0.5097222222222222 0.5138888888888888 0.5194444444444445 0.5270833333333333 0.5451388888888888 0.55625 0.56875 0.5805555555555556 0.5951388888888889 0.6236111111111111 0.6395833333333333 0.6576388888888889 0.675 0.6930555555555555 0.7118055555555556 0.74375 0.7583333333333333 0.7715277777777778 0.7833333333333333 0.7986111111111112 0.8013888888888889 0.8006944444444445 0.79375 0.7777777777777778 0.7152777777777778 0.6659722222222222 0.6048611111111111 0.5451388888888888 0.4763888888888889 0.35 0.2958333333333333 0.25 0.21875 0.19652777777777766 0.17777777777777778 0.17569444444444446 0.175 0.175 0.1736111111111111 0.16527777777777775 0.15763888888888888 0.14930555555555555 0.14027777777777778 0.13194444444444445 0.12152777777777778 0.12013888888888888,0.8074074074074074 0.8064814814814815 0.8046296296296296 0.8018518518518518 0.7981481481481482 0.787962962962963 0.7805555555555556 0.7722222222222223 0.7620370370370371 0.75 0.7240740740740741 0.7101851851851853 0.6944444444444444 0.6787037037037037 0.6592592592592592 0.6194444444444445 0.5990740740740741 0.5768518518518518 0.5555555555555556 0.5314814814814814 0.4814814814814815 0.4537037037037037 0.4268518518518518 0.4018518518518519 0.3759259259259259 0.3527777777777777 0.31018518518518523 0.2898148148148149 0.27222222222222225 0.25462962962962965 0.22685185185185186 0.2148148148148148 0.2046296296296296 0.1962962962962963 0.18796296296296305 0.1703703703703704 0.1620370370370371 0.15370370370370368 0.14722222222222225 0.13981481481481484 0.13055555555555556 0.12777777777777774 0.12592592592592589 0.12592592592592589 0.125 0.125 0.125 0.12407407407407413 0.12407407407407413 0.12407407407407413 0.12129629629629635 0.11759259259259258 0.1148148148148148 0.11203703703703703 0.11018518518518516 0.10925925925925928 0.10925925925925928,433.39999999996513 453.39999999996513 473.39999999996513 493.39999999996513 513.3999999999652 533.3999999999652 553.3999999999652 573.3999999999652 593.3999999999652 613.3999999999652 633.3999999999652 653.3999999999652 673.3999999999652 693.3999999999651 713.3999999999651 733.3999999999651 753.3999999999651 773.3999999999651 793.3999999999651 813.3999999999651 833.3999999999651 853.3999999999651 873.3999999999651 893.3999999999651 913.3999999999652 933.3999999999652 953.3999999999652 973.3999999999652 993.3999999999652 1013.3999999999652 1033.399999999965 1053.399999999965 1073.399999999965 1093.399999999965 1113.399999999965 1133.399999999965 1153.399999999965 1173.399999999965 1193.399999999965 1213.399999999965 1233.399999999965 1253.399999999965 1273.399999999965 1293.399999999965 1313.399999999965 1333.399999999965 1353.399999999965 1373.399999999965 1393.3999999999648 1413.3999999999648 1433.3999999999648 1453.3999999999648 1473.3999999999648 1493.3999999999648 1513.3999999999648 1533.3999999999648 1553.3999999999648
cb_10,3.0,enc_trial,stim,response,Fine Arts students,1283.2000000000114,enc_trial,1.0,3.0,s_sh_11_1,student_shared,fold-b,pencil case,10.0,competing,close,paired,s_sh_11_1.jpg,,student-b1,STEM students,Fine Arts students,sub-06,1.0,1.0,0.0,0.0,0.5277777777777778 0.5277777777777778 0.5277777777777778 0.5270833333333333 0.5270833333333333 0.525 0.5236111111111111 0.5215277777777778 0.5201388888888889 0.51875 0.5159722222222223 0.5145833333333333 0.5131944444444444 0.5118055555555555 0.5111111111111111 0.5111111111111111 0.5111111111111111 0.5104166666666666 0.5104166666666666 0.5111111111111111 0.5145833333333333 0.5166666666666667 0.5194444444444445 0.5243055555555556 0.53125 0.5506944444444445 0.5625 0.5743055555555555 0.5888888888888889 0.6041666666666666 0.6416666666666667 0.6611111111111111 0.6805555555555556 0.7006944444444444 0.7201388888888889 0.7375 0.76875 0.7798611111111111 0.7888888888888889 0.7958333333333333 0.8006944444444445 0.8083333333333333 0.8118055555555556 0.8159722222222222 0.8201388888888889 0.8263888888888888 0.8284722222222223 0.8305555555555556 0.8326388888888889 0.8361111111111111 0.8430555555555556 0.8472222222222222 0.8506944444444444 0.8541666666666666 0.85625 0.8576388888888888 0.8590277777777777 0.8590277777777777 0.8590277777777777 0.8597222222222223,0.85 0.8481481481481481 0.8472222222222222 0.8453703703703703 0.8435185185185186 0.8324074074074074 0.8240740740740741 0.8138888888888889 0.8046296296296296 0.7953703703703704 0.7787037037037037 0.7694444444444444 0.7601851851851852 0.7509259259259259 0.7398148148148148 0.7277777777777779 0.700925925925926 0.6870370370370371 0.6712962962962963 0.6555555555555556 0.625 0.6101851851851852 0.5962962962962963 0.5796296296296296 0.5601851851851851 0.5222222222222221 0.5018518518518518 0.4814814814814815 0.4592592592592593 0.4351851851851852 0.38703703703703707 0.3657407407407407 0.3453703703703703 0.325 0.3064814814814815 0.29074074074074074 0.2629629629629629 0.2518518518518519 0.2425925925925925 0.2361111111111112 0.2296296296296297 0.21666666666666667 0.21018518518518514 0.20370370370370366 0.1962962962962963 0.18518518518518529 0.18148148148148147 0.1787037037037037 0.17592592592592593 0.17222222222222228 0.16574074074074074 0.16296296296296298 0.1601851851851852 0.15740740740740744 0.15555555555555556 0.15462962962962967 0.15462962962962967 0.15462962962962967 0.15462962962962967 0.15462962962962967,50.10000000003493 70.10000000003492 90.10000000003492 110.10000000003492 130.1000000000349 150.1000000000349 170.1000000000349 190.10000000003487 210.10000000003487 230.10000000003487 250.10000000003487 270.10000000003487 290.10000000003487 310.1000000000348 330.1000000000348 350.1000000000348 370.1000000000348 390.1000000000348 410.1000000000348 430.1000000000348 450.1000000000348 470.1000000000348 490.1000000000348 510.1000000000348 530.1000000000348 550.1000000000348 570.1000000000347 590.1000000000347 610.1000000000347 630.1000000000347 650.1000000000347 670.1000000000347 690.1000000000348 710.1000000000348 730.1000000000348 750.1000000000348 770.1000000000348 790.1000000000348 810.1000000000348 830.1000000000348 850.1000000000348 870.1000000000346 890.1000000000346 910.1000000000346 930.1000000000346 950.1000000000346 970.1000000000346 990.1000000000346 1010.1000000000346 1030.1000000000347 1050.1000000000347 1070.1000000000347 1090.1000000000342 1110.1000000000342 1130.1000000000345 1150.1000000000345 1170.1000000000345 1190.1000000000345 1210.1000000000345 1230.1000000000345
cb_10,4.0,enc_trial,stim,response,Fine Arts students,1509.7999999955066,enc_trial,1.0,4.0,s_a_12_1,student_art,fold-c,saxophone,10.0,unique,close,paired,s_a_12_1.jpg,art,student-b1,STEM students,Fine Arts students,sub-06,1.0,1.0,1.0,1.0,0.5034722222222222 0.5027777777777778 0.5013888888888889 0.4993055555555556 0.4965277777777778 0.4923611111111112 0.4909722222222222 0.4902777777777778 0.4888888888888889 0.4875 0.4861111111111111 0.4854166666666666 0.4854166666666666 0.4854166666666666 0.4868055555555556 0.4909722222222222 0.4923611111111112 0.49375 0.49375 0.4916666666666666 0.4826388888888889 0.4763888888888889 0.46875 0.4583333333333333 0.4444444444444444 0.3993055555555556 0.3666666666666665 0.33194444444444443 0.2916666666666667 0.2520833333333333 0.1909722222222222 0.1701388888888889 0.15486111111111112 0.14652777777777778 0.14305555555555555 0.1423611111111111 0.1423611111111111 0.1423611111111111 0.1423611111111111 0.1423611111111111 0.14375 0.1486111111111111 0.1625 0.19652777777777766 0.2611111111111111 0.4479166666666667 0.5597222222222222 0.6576388888888889 0.7444444444444445 0.8138888888888889 0.8770833333333333 0.8847222222222222 0.8854166666666666 0.8861111111111111 0.8847222222222222 0.8826388888888889 0.8826388888888889 0.8826388888888889 0.8826388888888889 0.8826388888888889 0.8854166666666666 0.8881944444444444 0.8902777777777777 0.8909722222222223,0.8296296296296296 0.8231481481481482 0.8157407407407408 0.8046296296296296 0.7898148148148147 0.7592592592592593 0.7425925925925926 0.7231481481481481 0.7064814814814815 0.6888888888888889 0.6555555555555556 0.6398148148148148 0.624074074074074 0.6101851851851852 0.5944444444444444 0.5638888888888889 0.5462962962962963 0.525 0.500925925925926 0.4722222222222222 0.4101851851851852 0.3796296296296297 0.35 0.3240740740740741 0.29907407407407405 0.2583333333333333 0.2416666666666667 0.22685185185185186 0.2129629629629629 0.20185185185185184 0.1898148148148148 0.18425925925925926 0.17962962962962958 0.17685185185185182 0.17592592592592593 0.17592592592592593 0.17500000000000004 0.17500000000000004 0.17500000000000004 0.17500000000000004 0.17129629629629628 0.1685185185185185 0.1620370370370371 0.1527777777777778 0.14074074074074072 0.1166666666666667 0.10555555555555553 0.10092592592592596 0.09999999999999998 0.10555555555555553 0.12222222222222225 0.12777777777777774 0.13055555555555556 0.13055555555555556 0.13148148148148153 0.13148148148148153 0.13148148148148153 0.13148148148148153 0.13148148148148153 0.13148148148148153 0.13148148148148153 0.13055555555555556 0.12962962962962965 0.12962962962962965,166.79999999998842 186.79999999998842 206.79999999998842 226.79999999998842 246.79999999998842 266.7999999999884 286.79999999998836 306.79999999998836 326.79999999998836 346.7999999999884 366.7999999999884 386.7999999999884 406.7999999999884 426.7999999999884 446.7999999999884 466.7999999999884 486.7999999999884 506.7999999999884 526.7999999999884 546.7999999999884 566.7999999999884 586.7999999999884 606.7999999999884 626.7999999999884 646.7999999999884 666.7999999999884 686.7999999999884 706.7999999999884 726.7999999999884 746.7999999999884 766.7999999999884 786.7999999999884 806.7999999999884 826.7999999999884 846.7999999999884 866.7999999999884 886.7999999999884 906.7999999999884 926.7999999999884 946.7999999999884 966.7999999999884 986.7999999999884 1006.7999999999884 1026.7999999999884 1046.7999999999884 1066.7999999999884 1086.7999999999884 1106.7999999999884 1126.7999999999886 1146.7999999999886 1166.7999999999886 1186.7999999999886 1206.7999999999886 1226.7999999999886 1246.7999999999886 1266.7999999999886 1286.7999999999886 1306.7999999999886 1326.7999999999886 1346.7999999999886 1366.7999999999886 1386.7999999999884 1406.7999999999884 1426.7999999999884
cb_10,5.0,enc_trial,stim,response,STEM students,1070.7999999955064,enc_trial,1.0,5.0,s_s_15_2,student_stem,fold-c,jumper cables,10.0,unique,close,paired,s_s_15_2.jpg,stem,student-b1,STEM students,Fine Arts students,sub-06,1.0,1.0,1.0,1.0,0.4944444444444445 0.4944444444444445 0.4944444444444445 0.4944444444444445 0.4944444444444445 0.4944444444444445 0.4944444444444445 0.4944444444444445 0.4944444444444445 0.4944444444444445 0.4944444444444445 0.4944444444444445 0.4944444444444445 0.4944444444444445 0.4944444444444445 0.4923611111111112 0.4909722222222222 0.4881944444444444 0.4861111111111111 0.4826388888888889 0.475 0.4708333333333333 0.4659722222222222 0.4611111111111112 0.45625 0.4479166666666667 0.4451388888888889 0.44166666666666665 0.4381944444444445 0.43472222222222223 0.4236111111111111 0.4131944444444444 0.3979166666666665 0.3770833333333333 0.34791666666666665 0.2770833333333333 0.2388888888888889 0.20208333333333334 0.17152777777777778 0.1451388888888889 0.11319444444444444 0.10625 0.10347222222222224 0.10347222222222224 0.10347222222222224 0.10347222222222224 0.10347222222222224 0.10347222222222224 0.10277777777777776 0.10277777777777776,0.8231481481481482 0.8231481481481482 0.8231481481481482 0.8231481481481482 0.8231481481481482 0.8231481481481482 0.8231481481481482 0.8231481481481482 0.8231481481481482 0.8231481481481482 0.8231481481481482 0.8231481481481482 0.8222222222222222 0.8203703703703704 0.8175925925925926 0.8055555555555556 0.7962962962962963 0.7842592592592592 0.7703703703703704 0.7537037037037038 0.712962962962963 0.6870370370370371 0.6592592592592592 0.6305555555555555 0.6009259259259259 0.5509259259259259 0.5287037037037037 0.5092592592592593 0.4925925925925926 0.475 0.437962962962963 0.4148148148148149 0.38703703703703707 0.3583333333333333 0.3240740740740741 0.2583333333333333 0.2277777777777777 0.20185185185185184 0.18333333333333326 0.1685185185185185 0.1518518518518519 0.14907407407407405 0.14722222222222225 0.14629629629629626 0.14537037037037034 0.1444444444444445 0.1425925925925926 0.14074074074074072 0.13981481481481484 0.13888888888888884,0.0 20.0 40.0 60.0 80.0 100.0 120.0 140.0 160.0 180.0 200.0 220.0 240.0 260.0 280.0 300.0 320.0 340.0 360.0 380.0 400.0 420.0 440.0 460.0 480.0 500.0 520.0 540.0 560.0 580.0 600.0 620.0 640.0 660.0 680.0 700.0 720.0 740.0 760.0 780.0 800.0 820.0 840.0 860.0 880.0 900.0 920.0 940.0 960.0 980.0
cb_10,6.0,enc_trial,stim,response,STEM students,1268.8999999969965,enc_trial,1.0,6.0,s_s_19_1,student_stem,fold-c,circuit board,10.0,unique,close,paired,s_s_19_1.jpg,stem,student-b1,STEM students,Fine Arts students,sub-06,1.0,1.0,1.0,1.0,0.5166666666666667 0.5166666666666667 0.5166666666666667 0.5166666666666667 0.5166666666666667 0.5166666666666667 0.5166666666666667 0.5166666666666667 0.5166666666666667 0.5166666666666667 0.5166666666666667 0.5166666666666667 0.5166666666666667 0.5166666666666667 0.5166666666666667 0.5166666666666667 0.5166666666666667 0.5166666666666667 0.5166666666666667 0.5166666666666667 0.5166666666666667 0.51875 0.5215277777777778 0.5256944444444445 0.5298611111111111 0.5409722222222222 0.5458333333333333 0.5520833333333334 0.5590277777777778 0.5666666666666667 0.5861111111111111 0.5986111111111111 0.6125 0.6263888888888889 0.6388888888888888 0.65 0.6645833333333333 0.6666666666666666 0.6652777777777777 0.6576388888888889 0.61875 0.5881944444444445 0.55 0.5069444444444444 0.4638888888888889 0.3694444444444445 0.3284722222222222 0.2923611111111111 0.2638888888888889 0.24305555555555555 0.21388888888888888 0.2048611111111111 0.1993055555555556 0.1951388888888889 0.19166666666666668 0.18819444444444444 0.17708333333333334 0.16875 0.15902777777777774 0.15208333333333332 0.14444444444444446,0.862037037037037 0.862037037037037 0.862037037037037 0.862037037037037 0.862037037037037 0.862037037037037 0.862037037037037 0.862037037037037 0.862037037037037 0.862037037037037 0.862037037037037 0.862037037037037 0.862037037037037 0.862037037037037 0.862037037037037 0.8611111111111112 0.8583333333333334 0.8546296296296296 0.8481481481481481 0.8398148148148148 0.812962962962963 0.7962962962962963 0.7759259259259259 0.7537037037037038 0.7305555555555556 0.6759259259259259 0.65 0.6222222222222222 0.5953703703703703 0.5694444444444444 0.5185185185185186 0.4935185185185185 0.4694444444444445 0.4481481481481482 0.4296296296296296 0.4101851851851852 0.375 0.3574074074074074 0.3398148148148148 0.3212962962962963 0.2777777777777778 0.25555555555555554 0.2324074074074074 0.21203703703703705 0.1944444444444444 0.16388888888888886 0.15555555555555556 0.14814814814814814 0.1425925925925926 0.13888888888888884 0.1342592592592593 0.1342592592592593 0.1333333333333333 0.1333333333333333 0.1333333333333333 0.1342592592592593 0.1351851851851852 0.13611111111111107 0.13703703703703707 0.13796296296296295 0.13981481481481484,16.699999999953434 36.699999999953434 56.69999999995344 76.69999999995345 96.69999999995345 116.69999999995345 136.69999999995343 156.69999999995343 176.69999999995343 196.69999999995343 216.69999999995343 236.69999999995343 256.69999999995343 276.69999999995343 296.69999999995343 316.69999999995343 336.69999999995343 356.69999999995343 376.69999999995343 396.69999999995343 416.69999999995343 436.69999999995343 456.69999999995343 476.69999999995343 496.69999999995343 516.6999999999534 536.6999999999534 556.6999999999534 576.6999999999534 596.6999999999534 616.6999999999534 636.6999999999534 656.6999999999534 676.6999999999534 696.6999999999533 716.6999999999533 736.6999999999533 756.6999999999533 776.6999999999533 796.6999999999533 816.6999999999533 836.6999999999533 856.6999999999533 876.6999999999533 896.6999999999533 916.6999999999533 936.6999999999533 956.6999999999533 976.6999999999533 996.6999999999533 1016.6999999999533 1036.6999999999532 1056.6999999999532 1076.6999999999532 1096.6999999999532 1116.6999999999532 1136.6999999999534 1156.6999999999534 1176.6999999999534 1196.6999999999534 1216.6999999999534
cb_10,7.0,enc_trial,stim,response,STEM students,1318.199999997043,enc_trial,1.0,7.0,s_sh_11_2,student_shared,fold-b,pencil case,10.0,competing,close,paired,s_sh_11_2.jpg,,student-b1,STEM students,Fine Arts students,sub-06,1.0,1.0,0.0,0.0,0.5041666666666667 0.5048611111111111 0.5048611111111111 0.5055555555555555 0.50625 0.5083333333333333 0.5097222222222222 0.5118055555555555 0.5152777777777777 0.5201388888888889 0.5263888888888889 0.5479166666666667 0.5652777777777778 0.5861111111111111 0.6090277777777777 0.6618055555555555 0.6868055555555556 0.7111111111111111 0.7326388888888888 0.7486111111111111 0.76875 0.7736111111111111 0.7763888888888889 0.7777777777777778 0.7791666666666667 0.78125 0.7826388888888889 0.7854166666666667 0.7881944444444444 0.7909722222222222 0.7951388888888888 0.7951388888888888 0.7916666666666666 0.7770833333333333 0.7472222222222222 0.6402777777777777 0.5791666666666667 0.5090277777777777 0.4388888888888889 0.3756944444444445 0.2659722222222222 0.2298611111111111 0.20277777777777767 0.18541666666666667 0.17569444444444446 0.17152777777777778 0.1701388888888889 0.1673611111111111 0.16111111111111112 0.15138888888888888 0.13055555555555556 0.12986111111111112,0.8416666666666667 0.837037037037037 0.8305555555555555 0.8240740740740741 0.812962962962963 0.7842592592592592 0.7657407407407407 0.7416666666666667 0.7157407407407408 0.6879629629629629 0.6546296296296297 0.5777777777777777 0.5333333333333333 0.4898148148148148 0.4481481481481482 0.3601851851851852 0.3240740740740741 0.2935185185185185 0.2694444444444445 0.25277777777777777 0.2324074074074074 0.2277777777777777 0.2231481481481481 0.2203703703703704 0.21666666666666667 0.20740740740740726 0.20277777777777767 0.1962962962962963 0.1907407407407408 0.18518518518518529 0.17685185185185182 0.17314814814814816 0.1685185185185185 0.16296296296296298 0.1592592592592592 0.15462962962962967 0.15462962962962967 0.15462962962962967 0.15462962962962967 0.1527777777777778 0.1518518518518519 0.1518518518518519 0.1509259259259259 0.1509259259259259 0.1509259259259259 0.1509259259259259 0.1509259259259259 0.1509259259259259 0.14907407407407405 0.14814814814814814 0.14537037037037034 0.14537037037037034,299.9000000000233 319.9000000000233 339.9000000000233 359.90000000002334 379.90000000002334 399.90000000002334 419.90000000002334 439.90000000002334 459.90000000002334 479.90000000002334 499.90000000002334 519.9000000000234 539.9000000000234 559.9000000000234 579.9000000000233 599.9000000000233 619.9000000000233 639.9000000000233 659.9000000000233 679.9000000000233 699.9000000000232 719.9000000000232 739.9000000000232 759.9000000000232 779.9000000000232 799.9000000000232 819.9000000000232 839.9000000000232 859.9000000000232 879.9000000000232 899.9000000000232 919.9000000000232 939.9000000000232 959.9000000000232 979.9000000000232 999.9000000000232 1019.9000000000232 1039.9000000000233 1059.9000000000233 1079.9000000000233 1099.9000000000233 1119.9000000000233 1139.9000000000233 1159.9000000000233 1179.9000000000233 1199.9000000000233 1219.9000000000233 1239.9000000000233 1259.9000000000233 1279.9000000000233 1299.9000000000233 1319.9000000000233
cb_10,8.0,enc_trial,stim,response,Fine Arts students,1140.5999999970081,enc_trial,1.0,8.0,s_a_16_2,student_art,fold-b,piano,10.0,unique,far,paired,s_a_16_2.jpg,art,student-b1,STEM students,Fine Arts students,sub-06,1.0,1.0,1.0,1.0,0.5083333333333333 0.5083333333333333 0.5083333333333333 0.5083333333333333 0.5083333333333333 0.5083333333333333 0.5083333333333333 0.5083333333333333 0.5083333333333333 0.5083333333333333 0.5069444444444444 0.5034722222222222 0.5013888888888889 0.4993055555555556 0.4972222222222222 0.4951388888888889 0.4923611111111112 0.4909722222222222 0.4895833333333333 0.4888888888888889 0.4888888888888889 0.4909722222222222 0.4930555555555556 0.4979166666666667 0.5076388888888889 0.5409722222222222 0.5666666666666667 0.5972222222222222 0.6270833333333333 0.6576388888888889 0.7006944444444444 0.7125 0.7208333333333333 0.7263888888888889 0.7298611111111111 0.7354166666666667 0.7395833333333334 0.7430555555555556 0.7458333333333333 0.7486111111111111 0.7576388888888889 0.7645833333333333 0.7743055555555556 0.7847222222222222 0.7965277777777777 0.8201388888888889 0.83125 0.8416666666666667 0.8506944444444444 0.8576388888888888 0.8659722222222223 0.8673611111111111,0.8268518518518518 0.8268518518518518 0.8268518518518518 0.8268518518518518 0.8268518518518518 0.8268518518518518 0.8268518518518518 0.8268518518518518 0.825 0.8212962962962963 0.8148148148148149 0.7944444444444445 0.7787037037037037 0.7601851851851852 0.7379629629629629 0.712962962962963 0.6666666666666667 0.6435185185185186 0.6203703703703703 0.5972222222222222 0.5722222222222222 0.5212962962962964 0.4925925925925926 0.4638888888888889 0.4314814814814815 0.3666666666666667 0.3324074074074074 0.29814814814814816 0.2675925925925926 0.2379629629629629 0.19351851851851853 0.1787037037037037 0.16759259259259265 0.1601851851851852 0.15648148148148144 0.1518518518518519 0.14907407407407405 0.14629629629629626 0.1444444444444445 0.1435185185185185 0.1425925925925926 0.1425925925925926 0.1425925925925926 0.1425925925925926 0.1435185185185185 0.14722222222222225 0.14814814814814814 0.15000000000000002 0.1509259259259259 0.1509259259259259 0.1518518518518519 0.1518518518518519,83.20000000001164 103.20000000001164 123.20000000001164 143.2000000000116 163.2000000000116 183.20000000001164 203.20000000001164 223.20000000001164 243.20000000001164 263.20000000001164 283.20000000001164 303.20000000001164 323.20000000001164 343.20000000001164 363.2000000000117 383.2000000000117 403.2000000000117 423.2000000000117 443.2000000000117 463.2000000000117 483.2000000000117 503.2000000000117 523.2000000000116 543.2000000000116 563.2000000000116 583.2000000000116 603.2000000000116 623.2000000000116 643.2000000000116 663.2000000000116 683.2000000000116 703.2000000000116 723.2000000000116 743.2000000000116 763.2000000000116 783.2000000000116 803.2000000000116 823.2000000000116 843.2000000000116 863.2000000000116 883.2000000000116 903.2000000000116 923.2000000000116 943.2000000000116 963.2000000000116 983.2000000000116 1003.2000000000116 1023.2000000000116 1043.2000000000116 1063.2000000000116 1083.2000000000116 1103.2000000000116
cb_10,9.0,enc_trial,stim,response,Fine Arts students,1145.8999999969965,enc_trial,1.0,9.0,s_sh_18_1,student_shared,fold-c-single,wall calendar,10.0,competing,,single,s_sh_18_1.jpg,,student-b1,STEM students,Fine Arts students,sub-06,1.0,,1.0,,0.5020833333333333 0.5020833333333333 0.5020833333333333 0.5020833333333333 0.5013888888888889 0.5 0.5 0.5 0.5 0.5 0.5020833333333333 0.5041666666666667 0.5069444444444444 0.5090277777777777 0.5118055555555555 0.5222222222222223 0.5298611111111111 0.5402777777777777 0.5520833333333334 0.5638888888888889 0.5923611111111111 0.6090277777777777 0.6256944444444444 0.6444444444444445 0.6645833333333333 0.7180555555555556 0.7479166666666667 0.7736111111111111 0.7993055555555556 0.8215277777777777 0.8548611111111111 0.8645833333333334 0.8708333333333333 0.8743055555555556 0.8756944444444444 0.8756944444444444 0.8756944444444444 0.8756944444444444 0.8756944444444444 0.8756944444444444 0.8763888888888889 0.8770833333333333 0.8770833333333333 0.8777777777777778 0.8784722222222222,0.8194444444444444 0.8185185185185185 0.8138888888888889 0.8083333333333333 0.8 0.7722222222222223 0.7518518518518519 0.7287037037037036 0.700925925925926 0.6731481481481482 0.6083333333333334 0.5731481481481482 0.5407407407407407 0.5064814814814815 0.4768518518518519 0.4166666666666666 0.3907407407407407 0.3648148148148148 0.3416666666666667 0.3222222222222222 0.2842592592592592 0.2657407407407407 0.2481481481481481 0.2314814814814815 0.21666666666666667 0.18518518518518529 0.17129629629629628 0.1601851851851852 0.15000000000000002 0.1425925925925926 0.13148148148148153 0.12870370370370365 0.12685185185185188 0.125 0.125 0.125 0.125 0.125 0.125 0.125 0.125 0.125 0.125 0.125 0.125,233.29999999998842 253.29999999998842 273.2999999999884 293.29999999998836 313.29999999998836 333.29999999998836 353.2999999999884 373.2999999999884 393.2999999999884 413.2999999999884 433.2999999999884 453.2999999999884 473.2999999999884 493.2999999999884 513.2999999999884 533.2999999999884 553.2999999999884 573.2999999999884 593.2999999999884 613.2999999999884 633.2999999999884 653.2999999999884 673.2999999999884 693.2999999999884 713.2999999999884 733.2999999999884 753.2999999999884 773.2999999999884 793.2999999999884 813.2999999999884 833.2999999999884 853.2999999999884 873.2999999999884 893.2999999999884 913.2999999999884 933.2999999999884 953.2999999999884 973.2999999999884 993.2999999999884 1013.2999999999884 1033.2999999999884 1053.2999999999884 1073.2999999999884 1093.2999999999884 1113.2999999999884
cb_10,10.0,enc_trial,stim,response,STEM students,944.7999999999884,enc_trial,1.0,10.0,s_s_19_2,student_stem,fold-c,circuit board,10.0,unique,close,paired,s_s_19_2.jpg,stem,student-b1,STEM students,Fine Arts students,sub-06,1.0,1.0,1.0,1.0,0.5006944444444444 0.5013888888888889 0.5013888888888889 0.5020833333333333 0.5034722222222222 0.5083333333333333 0.5125 0.5166666666666667 0.5215277777777778 0.5263888888888889 0.5368055555555555 0.5402777777777777 0.5416666666666666 0.5416666666666666 0.5381944444444444 0.5173611111111112 0.4993055555555556 0.4777777777777778 0.45 0.4138888888888889 0.3284722222222222 0.28402777777777777 0.2458333333333333 0.21180555555555555 0.1840277777777778 0.14583333333333334 0.1326388888888889 0.12361111111111113 0.11736111111111112 0.11319444444444444 0.10694444444444444 0.10416666666666667 0.10347222222222224 0.10277777777777776 0.10138888888888888 0.10069444444444443,0.8083333333333333 0.8055555555555556 0.8009259259259259 0.7925925925925926 0.7824074074074074 0.7518518518518519 0.7314814814814814 0.7101851851851853 0.6851851851851851 0.6583333333333333 0.6009259259259259 0.5694444444444444 0.5398148148148147 0.5083333333333333 0.475 0.4175925925925926 0.3898148148148149 0.3666666666666667 0.3416666666666667 0.31666666666666665 0.2657407407407407 0.2435185185185185 0.22685185185185186 0.2129629629629629 0.20092592592592595 0.18333333333333326 0.17685185185185182 0.17129629629629628 0.1685185185185185 0.16574074074074074 0.16296296296296298 0.1620370370370371 0.1620370370370371 0.1620370370370371 0.1611111111111111 0.1611111111111111,233.29999999998842 253.29999999998842 273.2999999999884 293.29999999998836 313.29999999998836 333.29999999998836 353.2999999999884 373.2999999999884 393.2999999999884 413.2999999999884 433.2999999999884 453.2999999999884 473.2999999999884 493.2999999999884 513.2999999999884 533.2999999999884 553.2999999999884 573.2999999999884 593.2999999999884 613.2999999999884 633.2999999999884 653.2999999999884 673.2999999999884 693.2999999999884 713.2999999999884 733.2999999999884 753.2999999999884 773.2999999999884 793.2999999999884 813.2999999999884 833.2999999999884 853.2999999999884 873.2999999999884 893.2999999999884 913.2999999999884 933.2999999999884
cb_10,11.0,enc_trial,stim,response,Fine Arts students,1148.1999999940165,enc_trial,1.0,11.0,s_a_12_2,student_art,fold-c,saxophone,10.0,unique,close,paired,s_a_12_2.jpg,art,student-b1,STEM students,Fine Arts students,sub-06,1.0,1.0,1.0,1.0,0.4944444444444445 0.4944444444444445 0.4944444444444445 0.4944444444444445 0.4944444444444445 0.4944444444444445 0.4944444444444445 0.4944444444444445 0.4958333333333334 0.4986111111111111 0.5083333333333333 0.5138888888888888 0.5201388888888889 0.5256944444444445 0.53125 0.5402777777777777 0.5430555555555555 0.5458333333333333 0.5465277777777777 0.5458333333333333 0.5361111111111111 0.5243055555555556 0.5090277777777777 0.4881944444444444 0.4638888888888889 0.4138888888888889 0.3902777777777778 0.375 0.3673611111111112 0.3680555555555556 0.4138888888888889 0.4618055555555556 0.5173611111111112 0.5826388888888889 0.6444444444444445 0.7569444444444444 0.7930555555555555 0.8131944444444444 0.8215277777777777 0.8222222222222222 0.8222222222222222 0.8222222222222222 0.8222222222222222 0.8229166666666666 0.8229166666666666 0.8236111111111111 0.8236111111111111 0.8236111111111111 0.8236111111111111 0.8243055555555555 0.8291666666666667 0.8305555555555556 0.8319444444444445,0.8185185185185185 0.8185185185185185 0.8185185185185185 0.8185185185185185 0.8185185185185185 0.8185185185185185 0.8185185185185185 0.8175925925925926 0.8157407407407408 0.8101851851851851 0.7925925925925926 0.7814814814814814 0.7675925925925926 0.7518518518518519 0.7333333333333334 0.6916666666666667 0.6694444444444445 0.6481481481481481 0.624074074074074 0.5990740740740741 0.5509259259259259 0.5240740740740741 0.4981481481481481 0.4694444444444445 0.4398148148148148 0.3805555555555555 0.3527777777777777 0.3305555555555556 0.312037037037037 0.29814814814814816 0.2703703703703704 0.25648148148148153 0.2444444444444445 0.2324074074074074 0.2203703703703704 0.2 0.19259259259259254 0.1898148148148148 0.18888888888888888 0.18888888888888888 0.18888888888888888 0.18888888888888888 0.18888888888888888 0.18888888888888888 0.18888888888888888 0.18888888888888888 0.18888888888888888 0.18888888888888888 0.18888888888888888 0.18888888888888888 0.18796296296296305 0.18796296296296305 0.18796296296296305,100.0 120.0 140.0 160.0 180.0 200.0 220.0 240.0 260.0 280.0 300.0 320.0 340.0 360.0 380.0 400.0 420.0 440.0 460.0 480.0 500.0 520.0 540.0 560.0 580.0 600.0 620.0 640.0 660.0 680.0 700.0 720.0 740.0 760.0 780.0 800.0 820.0 840.0 860.0 880.0 900.0 920.0 940.0 960.0 980.0 1000.0 1020.0 1040.0 1060.0 1080.0 1100.0 1120.0 1140.0
cb_10,12.0,enc_trial,stim,response,STEM students,1319.3999999940281,enc_trial,1.0,12.0,s_sh_16_1,student_shared,fold-a,stapler,10.0,competing,far,paired,s_sh_16_1.jpg,,student-b1,STEM students,Fine Arts students,sub-06,1.0,1.0,1.0,0.0,0.50625 0.50625 0.50625 0.50625 0.50625 0.50625 0.50625 0.50625 0.50625 0.50625 0.50625 0.50625 0.50625 0.50625 0.50625 0.50625 0.50625 0.50625 0.5055555555555555 0.5055555555555555 0.5048611111111111 0.5041666666666667 0.5020833333333333 0.4993055555555556 0.4958333333333334 0.4847222222222222 0.4763888888888889 0.4652777777777778 0.4534722222222222 0.4375 0.40208333333333335 0.38125 0.3611111111111111 0.3423611111111111 0.325 0.2951388888888889 0.28125 0.26944444444444443 0.2590277777777778 0.2486111111111111 0.2305555555555556 0.2222222222222222 0.21388888888888888 0.20555555555555555 0.19791666666666666 0.1840277777777778 0.1763888888888889 0.1701388888888889 0.1638888888888889 0.15902777777777774 0.1527777777777778 0.15069444444444444 0.15 0.14930555555555555 0.1486111111111111 0.1486111111111111 0.1486111111111111 0.1486111111111111 0.14791666666666667 0.14791666666666667 0.14652777777777778 0.14652777777777778 0.14583333333333334 0.14583333333333334,0.8148148148148149 0.8148148148148149 0.8148148148148149 0.8148148148148149 0.8148148148148149 0.8148148148148149 0.8148148148148149 0.8148148148148149 0.8148148148148149 0.8148148148148149 0.8148148148148149 0.8148148148148149 0.8148148148148149 0.8138888888888889 0.812962962962963 0.8092592592592592 0.8083333333333333 0.8064814814814815 0.8055555555555556 0.8027777777777778 0.7935185185185185 0.7833333333333333 0.7712962962962963 0.7546296296296297 0.7351851851851852 0.6861111111111111 0.6564814814814814 0.6222222222222222 0.5888888888888889 0.5509259259259259 0.475 0.437962962962963 0.4027777777777778 0.3740740740740741 0.3481481481481481 0.3064814814814815 0.28796296296296303 0.27129629629629626 0.25555555555555554 0.2398148148148148 0.2129629629629629 0.20092592592592595 0.1898148148148148 0.17962962962962958 0.1694444444444444 0.15000000000000002 0.14074074074074072 0.13240740740740742 0.12592592592592589 0.12129629629629635 0.1166666666666667 0.1157407407407407 0.1148148148148148 0.1148148148148148 0.1148148148148148 0.1148148148148148 0.1148148148148148 0.1148148148148148 0.1157407407407407 0.1166666666666667 0.11944444444444445 0.12037037037037035 0.12129629629629635 0.12222222222222225,0.0 20.0 40.0 60.0 80.0 100.0 120.0 140.0 160.0 180.0 200.0 220.0 240.0 260.0 280.0 300.0 320.0 340.0 360.0 380.0 400.0 420.0 440.0 460.0 480.0 500.0 520.0 540.0 560.0 580.0 600.0 620.0 640.0 660.0 680.0 700.0 720.0 740.0 760.0 780.0 800.0 820.0 840.0 860.0 880.0 900.0 920.0 940.0 960.0 980.0 1000.0 1020.0 1040.0 1060.0 1080.0 1100.0 1120.0 1140.0 1160.0 1180.0 1200.0 1220.0 1240.0 1260.0
cb_10,13.0,enc_trial,stim,response,Fine Arts students,1487.6999999984982,enc_trial,1.0,13.0,s_sh_23_1,student_shared,fold-a,ballpoint pen,10.0,competing,far,paired,s_sh_23_1.jpg,,student-b1,STEM students,Fine Arts students,sub-06,1.0,1.0,1.0,1.0,0.5055555555555555 0.5055555555555555 0.5055555555555555 0.5055555555555555 0.5055555555555555 0.5055555555555555 0.5055555555555555 0.5055555555555555 0.5055555555555555 0.5055555555555555 0.5055555555555555 0.5055555555555555 0.5055555555555555 0.5055555555555555 0.5055555555555555 0.5055555555555555 0.5041666666666667 0.5034722222222222 0.5020833333333333 0.5013888888888889 0.5006944444444444 0.5006944444444444 0.5006944444444444 0.5 0.5 0.5 0.5 0.5 0.5006944444444444 0.5013888888888889 0.5020833333333333 0.5034722222222222 0.5041666666666667 0.5055555555555555 0.5069444444444444 0.5111111111111111 0.5118055555555555 0.5131944444444444 0.5131944444444444 0.5131944444444444 0.5083333333333333 0.5041666666666667 0.4965277777777778 0.4875 0.4763888888888889 0.4527777777777778 0.4430555555555555 0.4340277777777778 0.4256944444444444 0.4173611111111111 0.4027777777777778 0.3979166666666665 0.3951388888888889 0.3958333333333333 0.4 0.4243055555555556 0.4493055555555556 0.4826388888888889 0.5284722222222222 0.58125 0.6902777777777778 0.7430555555555556 0.7861111111111111 0.8215277777777777 0.8444444444444444 0.8590277777777777 0.8597222222222223 0.8597222222222223 0.8597222222222223 0.8604166666666667 0.8611111111111112 0.8645833333333334 0.8673611111111111 0.8708333333333333 0.8729166666666667 0.8736111111111111,0.8435185185185186 0.8435185185185186 0.8435185185185186 0.8435185185185186 0.8435185185185186 0.8435185185185186 0.8425925925925926 0.8425925925925926 0.8425925925925926 0.8425925925925926 0.8425925925925926 0.8425925925925926 0.8425925925925926 0.8425925925925926 0.8425925925925926 0.837962962962963 0.8342592592592593 0.8287037037037037 0.8222222222222222 0.8166666666666667 0.8074074074074074 0.8037037037037037 0.8 0.7962962962962963 0.7925925925925926 0.7814814814814814 0.7759259259259259 0.7694444444444444 0.7620370370370371 0.7546296296296297 0.7453703703703703 0.725 0.712962962962963 0.7 0.6861111111111111 0.6546296296296297 0.637962962962963 0.6185185185185185 0.5990740740740741 0.5787037037037037 0.5314814814814814 0.5101851851851852 0.4861111111111112 0.462037037037037 0.4407407407407408 0.39907407407407397 0.3805555555555555 0.3648148148148148 0.3490740740740741 0.33611111111111114 0.3083333333333333 0.2944444444444444 0.28240740740740744 0.2703703703703704 0.2611111111111111 0.2425925925925925 0.2333333333333333 0.2222222222222222 0.2083333333333333 0.1944444444444444 0.1694444444444444 0.1592592592592592 0.1518518518518519 0.14722222222222225 0.14537037037037034 0.1444444444444445 0.14537037037037034 0.14537037037037034 0.14629629629629626 0.15000000000000002 0.15370370370370368 0.16296296296296298 0.1694444444444444 0.17500000000000004 0.1777777777777778 0.1787037037037037,0.0 20.0 40.0 60.0 80.0 100.0 120.0 140.0 160.0 180.0 200.0 220.0 240.0 260.0 280.0 300.0 320.0 340.0 360.0 380.0 400.0 420.0 440.0 460.0 480.0 500.0 520.0 540.0 560.0 580.0 600.0 620.0 640.0 660.0 680.0 700.0 720.0 740.0 760.0 780.0 800.0 820.0 840.0 860.0 880.0 900.0 920.0 940.0 960.0 980.0 1000.0 1020.0 1040.0 1060.0 1080.0 1100.0 1120.0 1140.0 1160.0 1180.0 1200.0 1220.0 1240.0 1260.0 1280.0 1300.0 1320.0 1340.0 1360.0 1380.0 1400.0 1420.0 1440.0 1460.0 1480.0 1500.0
cb_10,14.0,enc_trial,stim,response,STEM students,1040.8999999985099,enc_trial,1.0,14.0,s_sh_24_1,student_shared,fold-b,desk organizer,10.0,competing,close,paired,s_sh_24_1.jpg,,student-b1,STEM students,Fine Arts students,sub-06,0.0,0.0,0.0,1.0,0.50625 0.50625 0.50625 0.50625 0.5055555555555555 0.5027777777777778 0.5006944444444444 0.4965277777777778 0.4916666666666666 0.4854166666666666 0.4659722222222222 0.4555555555555556 0.4451388888888889 0.4354166666666667 0.4256944444444444 0.4131944444444444 0.3770833333333333 0.35347222222222224 0.3284722222222222 0.30416666666666664 0.2486111111111111 0.22361111111111112 0.2 0.18125 0.1673611111111111 0.15694444444444444 0.14652777777777778 0.14444444444444446 0.14305555555555555 0.14166666666666666 0.13958333333333334 0.1361111111111111 0.13472222222222222 0.13402777777777775 0.13333333333333333 0.13333333333333333 0.13333333333333333 0.13333333333333333,0.8342592592592593 0.8342592592592593 0.8324074074074074 0.8268518518518518 0.8175925925925926 0.7824074074074074 0.7592592592592593 0.7314814814814814 0.7 0.6675925925925925 0.5898148148148148 0.5546296296296296 0.5212962962962964 0.4935185185185185 0.4685185185185186 0.4453703703703704 0.4018518518518519 0.3814814814814815 0.3601851851851852 0.3398148148148148 0.2953703703703704 0.2768518518518519 0.2592592592592593 0.2444444444444445 0.2342592592592593 0.225925925925926 0.2157407407407408 0.21203703703703705 0.2083333333333333 0.2046296296296296 0.19907407407407407 0.1898148148148148 0.18425925925925926 0.1805555555555556 0.1777777777777778 0.17685185185185182 0.17592592592592593 0.17500000000000004,216.59999999997672 236.59999999997672 256.5999999999767 276.5999999999767 296.5999999999767 316.5999999999767 336.5999999999767 356.59999999997666 376.59999999997666 396.59999999997666 416.59999999997666 436.59999999997666 456.59999999997666 476.59999999997666 496.59999999997666 516.5999999999766 536.5999999999766 556.5999999999766 576.5999999999767 596.5999999999767 616.5999999999767 636.5999999999767 656.5999999999767 676.5999999999767 696.5999999999768 716.5999999999768 736.5999999999768 756.5999999999768 776.5999999999768 796.5999999999768 816.5999999999768 836.5999999999768 856.5999999999768 876.5999999999768 896.5999999999768 916.5999999999768 936.5999999999768 956.5999999999768
cb_10,15.0,enc_trial,stim,response,STEM students,976.1999999984982,enc_trial,1.0,15.0,s_s_02_1,student_stem,fold-b,flask,10.0,unique,far,paired,s_s_02_1.jpg,stem,student-b1,STEM students,Fine Arts students,sub-06,1.0,1.0,1.0,0.0,0.5236111111111111 0.5222222222222223 0.5194444444444445 0.5152777777777777 0.5083333333333333 0.4847222222222222 0.4666666666666667 0.4451388888888889 0.4263888888888889 0.4055555555555556 0.3645833333333333 0.34375 0.3243055555555556 0.30625 0.2888888888888889 0.2625 0.25069444444444444 0.23680555555555555 0.22013888888888888 0.2 0.15555555555555556 0.13472222222222222 0.12013888888888888 0.11388888888888887 0.11180555555555556 0.1125 0.11319444444444444,0.8101851851851851 0.8027777777777778 0.787037037037037 0.7666666666666666 0.7361111111111112 0.6537037037037037 0.6037037037037036 0.5462962962962963 0.4972222222222222 0.4435185185185185 0.35092592592592603 0.3111111111111111 0.2796296296296297 0.25555555555555554 0.2361111111111112 0.21203703703703705 0.20185185185185184 0.19166666666666665 0.18148148148148147 0.1703703703703704 0.1509259259259259 0.14629629629629626 0.14537037037037034 0.14537037037037034 0.14629629629629626 0.14629629629629626 0.14629629629629626,450.09999999997666 470.09999999997666 490.09999999997666 510.09999999997666 530.0999999999766 550.0999999999766 570.0999999999767 590.0999999999767 610.0999999999767 630.0999999999767 650.0999999999767 670.0999999999767 690.0999999999768 710.0999999999768 730.0999999999768 750.0999999999768 770.0999999999768 790.0999999999768 810.0999999999768 830.0999999999768 850.0999999999768 870.0999999999768 890.0999999999768 910.0999999999768 930.0999999999768 950.0999999999768 970.0999999999768
cb_10,16.0,enc_trial,stim,response,Fine Arts students,1352.2000000000114,enc_trial,1.0,16.0,s_a_14_1,student_art,fold-c,guitar pick,10.0,unique,close,paired,s_a_14_1.jpg,art,student-b1,STEM students,Fine Arts students,sub-06,1.0,1.0,1.0,1.0,0.5090277777777777 0.5090277777777777 0.5090277777777777 0.5090277777777777 0.5090277777777777 0.5090277777777777 0.5090277777777777 0.5090277777777777 0.5090277777777777 0.5083333333333333 0.5083333333333333 0.5083333333333333 0.5083333333333333 0.5083333333333333 0.5083333333333333 0.5097222222222222 0.5104166666666666 0.5118055555555555 0.5125 0.5138888888888888 0.5152777777777777 0.5166666666666667 0.5180555555555556 0.51875 0.5194444444444445 0.5208333333333334 0.5215277777777778 0.5222222222222223 0.5236111111111111 0.525 0.5291666666666667 0.53125 0.5340277777777778 0.5375 0.5409722222222222 0.5486111111111112 0.5527777777777778 0.5583333333333333 0.5638888888888889 0.5701388888888889 0.5833333333333334 0.5909722222222222 0.5993055555555555 0.6076388888888888 0.6166666666666667 0.6333333333333333 0.6430555555555556 0.6534722222222222 0.6638888888888889 0.6763888888888889 0.7048611111111112 0.7194444444444444 0.7347222222222223 0.7486111111111111 0.7638888888888888 0.7916666666666666 0.8048611111111111 0.81875 0.8277777777777777 0.8361111111111111 0.8472222222222222 0.8527777777777777 0.8583333333333333 0.8638888888888889 0.8645833333333334,0.8240740740740741 0.8240740740740741 0.8240740740740741 0.8222222222222222 0.8194444444444444 0.812037037037037 0.8092592592592592 0.8064814814814815 0.8027777777777778 0.7972222222222223 0.7824074074074074 0.7740740740740741 0.7648148148148148 0.7546296296296297 0.7425925925925926 0.7157407407407408 0.6990740740740741 0.6814814814814815 0.6648148148148147 0.6462962962962964 0.6287037037037038 0.5953703703703703 0.5814814814814815 0.5703703703703704 0.5592592592592592 0.5398148148148147 0.5296296296296297 0.5194444444444444 0.5101851851851852 0.5018518518518518 0.4861111111111112 0.4787037037037037 0.4703703703703703 0.462037037037037 0.4537037037037037 0.437037037037037 0.4268518518518518 0.4157407407407408 0.4055555555555556 0.3944444444444445 0.3731481481481481 0.3611111111111112 0.35 0.3388888888888889 0.3277777777777777 0.30740740740740746 0.2972222222222223 0.2870370370370371 0.2768518518518519 0.2666666666666667 0.2444444444444445 0.2333333333333333 0.2222222222222222 0.21203703703703705 0.20092592592592595 0.1805555555555556 0.1703703703703704 0.1592592592592592 0.1527777777777778 0.14629629629629626 0.13888888888888884 0.1351851851851852 0.13240740740740742 0.12962962962962965 0.12962962962962965,83.40000000002328 103.40000000002328 123.40000000002328 143.40000000002328 163.40000000002328 183.40000000002328 203.40000000002328 223.40000000002328 243.40000000002328 263.4000000000233 283.4000000000233 303.4000000000233 323.4000000000233 343.4000000000233 363.40000000002334 383.40000000002334 403.40000000002334 423.40000000002334 443.40000000002334 463.40000000002334 483.40000000002334 503.40000000002334 523.4000000000234 543.4000000000234 563.4000000000233 583.4000000000233 603.4000000000233 623.4000000000233 643.4000000000233 663.4000000000233 683.4000000000233 703.4000000000232 723.4000000000232 743.4000000000232 763.4000000000232 783.4000000000232 803.4000000000232 823.4000000000232 843.4000000000232 863.4000000000232 883.4000000000232 903.4000000000232 923.4000000000232 943.4000000000232 963.4000000000232 983.4000000000232 1003.4000000000232 1023.4000000000232 1043.4000000000233 1063.4000000000233 1083.4000000000233 1103.4000000000233 1123.4000000000233 1143.4000000000233 1163.4000000000233 1183.4000000000233 1203.4000000000233 1223.4000000000233 1243.4000000000233 1263.4000000000233 1283.4000000000233 1303.4000000000233 1323.4000000000233 1343.4000000000233 1363.4000000000233
cb_10,17.0,enc_trial,stim,response,STEM students,1105.2999999999884,enc_trial,1.0,17.0,s_sh_08_1,student_shared,fold-c-single,post-its,10.0,competing,,single,s_sh_08_1.jpg,,student-b1,STEM students,Fine Arts students,sub-06,1.0,,1.0,,0.5 0.5 0.4993055555555556 0.4972222222222222 0.49375 0.4868055555555556 0.4826388888888889 0.4770833333333334 0.4715277777777778 0.4638888888888889 0.4548611111111111 0.4354166666666667 0.4243055555555556 0.4138888888888889 0.4027777777777778 0.3819444444444444 0.3715277777777778 0.3611111111111111 0.3513888888888889 0.3395833333333333 0.3145833333333333 0.3013888888888889 0.28680555555555554 0.27361111111111114 0.2590277777777778 0.24722222222222226 0.2243055555555556 0.21388888888888888 0.20208333333333334 0.1909722222222222 0.18055555555555555 0.1625 0.15416666666666667 0.14722222222222225 0.14097222222222222 0.13333333333333333 0.13125 0.12986111111111112 0.1284722222222222 0.12708333333333333 0.125 0.12430555555555554 0.12361111111111113,0.8546296296296296 0.8518518518518519 0.8472222222222222 0.8388888888888889 0.8277777777777777 0.7953703703703704 0.7731481481481481 0.7472222222222222 0.7203703703703703 0.6879629629629629 0.6546296296296297 0.5898148148148148 0.5583333333333333 0.5296296296296297 0.5018518518518518 0.4509259259259261 0.4268518518518518 0.4037037037037037 0.3805555555555555 0.3564814814814815 0.3157407407407408 0.2972222222222223 0.2805555555555556 0.2666666666666667 0.2518518518518519 0.2407407407407407 0.21944444444444444 0.2083333333333333 0.1972222222222222 0.18703703703703692 0.17685185185185182 0.15833333333333333 0.15000000000000002 0.1444444444444445 0.13981481481481484 0.1342592592592593 0.13240740740740742 0.13240740740740742 0.13148148148148153 0.13148148148148153 0.12962962962962965 0.12962962962962965 0.12962962962962965,33.399999999965075 53.399999999965075 73.39999999996508 93.39999999996508 113.39999999996508 133.39999999996508 153.3999999999651 173.3999999999651 193.3999999999651 213.3999999999651 233.3999999999651 253.3999999999651 273.3999999999651 293.39999999996513 313.39999999996513 333.39999999996513 353.39999999996513 373.39999999996513 393.39999999996513 413.39999999996513 433.39999999996513 453.39999999996513 473.39999999996513 493.39999999996513 513.3999999999652 533.3999999999652 553.3999999999652 573.3999999999652 593.3999999999652 613.3999999999652 633.3999999999652 653.3999999999652 673.3999999999652 693.3999999999651 713.3999999999651 733.3999999999651 753.3999999999651 773.3999999999651 793.3999999999651 813.3999999999651 833.3999999999651 853.3999999999651 873.3999999999651
cb_10,18.0,enc_trial,stim,response,Fine Arts students,1128.9000000000233,enc_trial,1.0,18.0,s_a_17_1,student_art,fold-b,microphone,10.0,unique,far,paired,s_a_17_1.jpg,art,student-b1,STEM students,Fine Arts students,sub-06,1.0,1.0,1.0,1.0,0.5201388888888889 0.5194444444444445 0.51875 0.5173611111111112 0.5159722222222223 0.5145833333333333 0.5125 0.5118055555555555 0.5104166666666666 0.5097222222222222 0.5104166666666666 0.5111111111111111 0.5125 0.5138888888888888 0.5152777777777777 0.5173611111111112 0.5243055555555556 0.5298611111111111 0.5361111111111111 0.5423611111111111 0.5486111111111112 0.5458333333333333 0.5361111111111111 0.5152777777777777 0.4868055555555556 0.4506944444444445 0.3881944444444445 0.3701388888888889 0.36527777777777776 0.3736111111111111 0.4486111111111111 0.5111111111111111 0.5881944444444445 0.6666666666666666 0.7354166666666667 0.8368055555555556 0.8569444444444444 0.8631944444444445 0.8631944444444445 0.8631944444444445 0.8631944444444445 0.8625,0.8453703703703703 0.8425925925925926 0.837962962962963 0.8305555555555555 0.8203703703703704 0.8111111111111111 0.7851851851851852 0.7712962962962963 0.7546296296296297 0.737037037037037 0.7 0.6833333333333333 0.6638888888888889 0.6453703703703704 0.6287037037037038 0.6101851851851852 0.5722222222222222 0.5518518518518518 0.5296296296296297 0.5074074074074074 0.4611111111111112 0.437962962962963 0.4166666666666666 0.3916666666666667 0.3666666666666667 0.3388888888888889 0.2925925925925926 0.2777777777777778 0.2694444444444445 0.2601851851851852 0.2296296296296297 0.2138888888888889 0.19907407407407407 0.18796296296296305 0.1787037037037037 0.16759259259259265 0.16666666666666666 0.16666666666666666 0.16666666666666666 0.16666666666666666 0.16759259259259265 0.16759259259259265,150.0 170.0 190.0 210.0 230.0 250.0 270.0 290.0 310.0 330.0 350.0 370.0 390.0 410.0 430.0 450.0 470.0 490.0 510.0 530.0 550.0 570.0 590.0 610.0 630.0 650.0 670.0 690.0 710.0 730.0 750.0 770.0 790.0 810.0 830.0 850.0 870.0 890.0 910.0 930.0 950.0 970.0
cb_10,19.0,enc_trial,stim,response,Fine Arts students,1049.4999999984866,enc_trial,1.0,19.0,s_a_14_2,student_art,fold-c,guitar pick,10.0,unique,close,paired,s_a_14_2.jpg,art,student-b1,STEM students,Fine Arts students,sub-06,1.0,1.0,1.0,1.0,0.5090277777777777 0.5090277777777777 0.5090277777777777 0.5083333333333333 0.5069444444444444 0.5048611111111111 0.5048611111111111 0.5048611111111111 0.5076388888888889 0.5118055555555555 0.5173611111111112 0.5340277777777778 0.5451388888888888 0.5576388888888889 0.5715277777777777 0.5854166666666667 0.5916666666666667 0.5777777777777777 0.5548611111111111 0.5291666666666667 0.5083333333333333 0.5111111111111111 0.5423611111111111 0.5909722222222222 0.6569444444444444 0.7277777777777777 0.8326388888888889 0.8527777777777777 0.8569444444444444 0.8569444444444444 0.8548611111111111 0.8486111111111111 0.8465277777777778 0.8451388888888889 0.8430555555555556 0.8409722222222222 0.8381944444444445,0.8314814814814815 0.8287037037037037 0.8194444444444444 0.8064814814814815 0.7888888888888889 0.7416666666666667 0.7101851851851853 0.675 0.637962962962963 0.5962962962962963 0.5527777777777778 0.4657407407407408 0.4222222222222223 0.3851851851851852 0.35 0.3157407407407408 0.25277777777777777 0.2240740740740741 0.20277777777777767 0.18888888888888888 0.1805555555555556 0.17407407407407405 0.17129629629629628 0.1694444444444444 0.1694444444444444 0.16759259259259265 0.15833333333333333 0.1527777777777778 0.15000000000000002 0.14907407407407405 0.14814814814814814 0.1444444444444445 0.1425925925925926 0.14166666666666672 0.13981481481481484 0.13703703703703707 0.1333333333333333,249.8999999999651 269.8999999999651 289.89999999996513 309.89999999996496 329.89999999996496 349.8999999999649 369.8999999999649 389.8999999999649 409.8999999999649 429.8999999999649 449.8999999999649 469.89999999996485 489.89999999996473 509.89999999996473 529.8999999999646 549.8999999999646 569.8999999999646 589.8999999999646 609.8999999999646 629.8999999999645 649.8999999999645 669.8999999999645 689.8999999999644 709.8999999999644 729.8999999999644 749.8999999999644 769.8999999999644 789.8999999999643 809.8999999999643 829.8999999999643 849.8999999999643 869.8999999999643 889.8999999999643 909.8999999999643 929.8999999999643 949.8999999999639 969.8999999999639
cb_10,20.0,enc_trial,stim,response,STEM students,1002.39999999851,enc_trial,1.0,20.0,s_sh_24_2,student_shared,fold-b,desk organizer,10.0,competing,close,paired,s_sh_24_2.jpg,,student-b1,STEM students,Fine Arts students,sub-06,0.0,0.0,0.0,1.0,0.5006944444444444 0.5006944444444444 0.5006944444444444 0.5 0.4993055555555556 0.4972222222222222 0.4951388888888889 0.4923611111111112 0.4888888888888889 0.4847222222222222 0.4729166666666666 0.4666666666666667 0.4590277777777778 0.4486111111111111 0.4361111111111111 0.40208333333333335 0.38333333333333336 0.3625 0.34097222222222223 0.3194444444444444 0.29930555555555555 0.25625 0.23541666666666666 0.21597222222222226 0.1986111111111111 0.16458333333333333 0.14930555555555555 0.13333333333333333 0.12152777777777778 0.1125 0.10625 0.10138888888888888 0.10069444444444443,0.837037037037037 0.8351851851851853 0.8324074074074074 0.8277777777777777 0.8203703703703704 0.7981481481481482 0.7824074074074074 0.7620370370370371 0.737037037037037 0.7101851851851853 0.6435185185185186 0.6092592592592593 0.5712962962962963 0.5333333333333333 0.4981481481481481 0.4268518518518518 0.39907407407407397 0.3731481481481481 0.35092592592592603 0.3324074074074074 0.31666666666666665 0.28796296296296303 0.2759259259259259 0.26388888888888884 0.25370370370370365 0.2287037037037037 0.2157407407407408 0.20185185185185184 0.19166666666666665 0.18333333333333326 0.17685185185185182 0.1703703703703704 0.1694444444444444,150.0 170.0 190.0 210.0 230.0 250.0 270.0 290.0 310.0 330.0 350.0 370.0 390.0 410.0 430.0 450.0 470.0 490.0 510.0 530.0 550.0 570.0 590.0 610.0 630.0 650.0 670.0 690.0 710.0 730.0 750.0 770.0 790.0
cb_10,21.0,enc_trial,stim,response,Fine Arts students,1351.4999999984864,enc_trial,1.0,21.0,s_sh_19_1,student_shared,fold-a,portable plastic drawer,10.0,competing,far,paired,s_sh_19_1.jpg,,student-b1,STEM students,Fine Arts students,sub-06,1.0,1.0,1.0,1.0,0.4972222222222222 0.4972222222222222 0.4972222222222222 0.4972222222222222 0.4972222222222222 0.4972222222222222 0.4972222222222222 0.4972222222222222 0.4972222222222222 0.4972222222222222 0.4972222222222222 0.4972222222222222 0.4979166666666667 0.4979166666666667 0.4993055555555556 0.5 0.5020833333333333 0.5034722222222222 0.5048611111111111 0.5069444444444444 0.5090277777777777 0.5131944444444444 0.5152777777777777 0.5173611111111112 0.51875 0.5201388888888889 0.5215277777777778 0.5222222222222223 0.5229166666666667 0.5236111111111111 0.5236111111111111 0.525 0.5256944444444445 0.5263888888888889 0.5270833333333333 0.5305555555555556 0.5326388888888889 0.5354166666666667 0.5388888888888889 0.54375 0.5548611111111111 0.5611111111111111 0.5673611111111111 0.5743055555555555 0.58125 0.5972222222222222 0.6055555555555555 0.6152777777777778 0.6298611111111111 0.6465277777777778 0.6888888888888889 0.7111111111111111 0.7340277777777777 0.7555555555555555 0.7743055555555556 0.8034722222222223 0.8125 0.8194444444444444 0.825 0.8277777777777777 0.8333333333333334 0.8354166666666667 0.8368055555555556 0.8381944444444445 0.8388888888888889 0.8395833333333333 0.8402777777777778,0.825 0.825 0.825 0.825 0.825 0.825 0.825 0.825 0.825 0.825 0.825 0.8222222222222222 0.8166666666666667 0.8074074074074074 0.7944444444444445 0.7777777777777778 0.7435185185185185 0.7259259259259259 0.7101851851851853 0.6953703703703704 0.6805555555555556 0.6537037037037037 0.6416666666666666 0.6314814814814815 0.624074074074074 0.6166666666666667 0.6037037037037036 0.6 0.5962962962962963 0.5935185185185186 0.5916666666666667 0.587037037037037 0.5842592592592593 0.5805555555555555 0.5759259259259261 0.5638888888888889 0.5574074074074074 0.5490740740740739 0.5407407407407407 0.5305555555555556 0.5083333333333333 0.4972222222222222 0.487037037037037 0.47592592592592603 0.4666666666666667 0.4435185185185185 0.4314814814814815 0.4185185185185185 0.4027777777777778 0.3842592592592593 0.34259259259259256 0.3222222222222222 0.30092592592592593 0.2805555555555556 0.2629629629629629 0.2333333333333333 0.2231481481481481 0.2138888888888889 0.2064814814814815 0.20092592592592595 0.1898148148148148 0.18611111111111112 0.18333333333333326 0.1805555555555556 0.17962962962962958 0.1787037037037037 0.1787037037037037,0.0 20.0 40.0 60.0 80.0 100.0 120.0 140.0 160.0 180.0 200.0 220.0 240.0 260.0 280.0 300.0 320.0 340.0 360.0 380.0 400.0 420.0 440.0 460.0 480.0 500.0 520.0 540.0 560.0 580.0 600.0 620.0 640.0 660.0 680.0 700.0 720.0 740.0 760.0 780.0 800.0 820.0 840.0 860.0 880.0 900.0 920.0 940.0 960.0 980.0 1000.0 1020.0 1040.0 1060.0 1080.0 1100.0 1120.0 1140.0 1160.0 1180.0 1200.0 1220.0 1240.0 1260.0 1280.0 1300.0 1320.0
cb_10,22.0,enc_trial,stim,response,Fine Arts students,1288.9999999970316,enc_trial,1.0,22.0,s_sh_07_1,student_shared,fold-a,ruler,10.0,competing,far,paired,s_sh_07_1.jpg,,student-b1,STEM students,Fine Arts students,sub-06,1.0,1.0,1.0,0.0,0.5027777777777778 0.5027777777777778 0.5027777777777778 0.5027777777777778 0.5027777777777778 0.5027777777777778 0.5027777777777778 0.5027777777777778 0.5027777777777778 0.5027777777777778 0.5034722222222222 0.5041666666666667 0.5048611111111111 0.5048611111111111 0.5055555555555555 0.50625 0.5069444444444444 0.5076388888888889 0.5076388888888889 0.5076388888888889 0.5083333333333333 0.5076388888888889 0.5055555555555555 0.5027777777777778 0.4993055555555556 0.4888888888888889 0.4798611111111111 0.4673611111111111 0.4520833333333333 0.4319444444444445 0.3805555555555555 0.35208333333333336 0.31666666666666665 0.2833333333333333 0.25069444444444444 0.22083333333333333 0.18263888888888888 0.17569444444444446 0.17430555555555555 0.17430555555555555 0.17708333333333334 0.18541666666666667 0.1951388888888889 0.21388888888888888 0.2520833333333333 0.3125 0.4729166666666666 0.5673611111111111 0.6430555555555556 0.7201388888888889 0.8256944444444444 0.8548611111111111 0.8680555555555556 0.8708333333333333 0.8708333333333333 0.8708333333333333 0.8708333333333333 0.8708333333333333 0.8708333333333333 0.8708333333333333 0.8708333333333333 0.8708333333333333 0.8715277777777778 0.8715277777777778 0.8722222222222222 0.8722222222222222,0.8398148148148148 0.837962962962963 0.8342592592592593 0.8287037037037037 0.8222222222222222 0.8138888888888889 0.7962962962962963 0.7888888888888889 0.7814814814814814 0.7740740740740741 0.7675925925925926 0.7527777777777778 0.7453703703703703 0.7379629629629629 0.7287037037037036 0.7092592592592593 0.6962962962962963 0.6796296296296296 0.6648148148148147 0.6462962962962964 0.6101851851851852 0.5916666666666667 0.5712962962962963 0.5537037037037037 0.5342592592592592 0.4972222222222222 0.47592592592592603 0.4555555555555556 0.4351851851851852 0.4138888888888889 0.37222222222222223 0.3527777777777777 0.3305555555555556 0.31018518518518523 0.2898148148148149 0.2703703703703704 0.2444444444444445 0.2388888888888889 0.2351851851851852 0.2324074074074074 0.2277777777777777 0.21203703703703705 0.20092592592592595 0.18796296296296305 0.17222222222222228 0.15648148148148144 0.1333333333333333 0.12314814814814813 0.11759259259259258 0.11388888888888893 0.1157407407407407 0.11944444444444445 0.12129629629629635 0.12222222222222225 0.12222222222222225 0.12314814814814813 0.12314814814814813 0.12314814814814813 0.12314814814814813 0.12314814814814813 0.12314814814814813 0.12314814814814813 0.12314814814814813 0.12314814814814813 0.12314814814814813 0.12407407407407413,0.0 20.0 40.0 60.0 80.0 100.0 120.0 140.0 160.0 180.0 200.0 220.0 240.0 260.0 280.0 300.0 320.0 340.0 360.0 380.0 400.0 420.0 440.0 460.0 480.0 500.0 520.0 540.0 560.0 580.0 600.0 620.0 640.0 660.0 680.0 700.0 720.0 740.0 760.0 780.0 800.0 820.0 840.0 860.0 880.0 900.0 920.0 940.0 960.0 980.0 1000.0 1020.0 1040.0 1060.0 1080.0 1100.0 1120.0 1140.0 1160.0 1180.0 1200.0 1220.0 1240.0 1260.0 1280.0 1300.0
cb_10,23.0,enc_trial,stim,response,STEM students,977.899999994028,enc_trial,1.0,23.0,s_s_01_1,student_stem,fold-b,microscope,10.0,unique,far,paired,s_s_01_1.jpg,stem,student-b1,STEM students,Fine Arts students,sub-06,1.0,1.0,1.0,1.0,0.4972222222222222 0.4972222222222222 0.4972222222222222 0.4965277777777778 0.4958333333333334 0.4944444444444445 0.4930555555555556 0.4916666666666666 0.4902777777777778 0.4888888888888889 0.4854166666666666 0.4819444444444445 0.4770833333333334 0.4701388888888889 0.4604166666666666 0.4381944444444445 0.4236111111111111 0.4069444444444445 0.3895833333333333 0.36875 0.32569444444444445 0.30277777777777776 0.2798611111111111 0.2590277777777778 0.23680555555555555 0.1951388888888889 0.1763888888888889 0.16111111111111112 0.1486111111111111 0.13958333333333334 0.12708333333333333 0.12222222222222222 0.11875 0.11597222222222225 0.11388888888888887 0.1111111111111111 0.11041666666666666,0.8157407407407408 0.8148148148148149 0.812962962962963 0.8101851851851851 0.8074074074074074 0.7972222222222223 0.7898148148148147 0.7796296296296297 0.7685185185185185 0.7527777777777778 0.7148148148148148 0.6907407407407408 0.6638888888888889 0.6351851851851852 0.6009259259259259 0.537037037037037 0.500925925925926 0.4657407407407408 0.4342592592592592 0.4009259259259259 0.34351851851851856 0.3185185185185185 0.2953703703703704 0.2768518518518519 0.2583333333333333 0.225925925925926 0.21203703703703705 0.2 0.1907407407407408 0.18240740740740746 0.1685185185185185 0.16296296296296298 0.15833333333333333 0.15370370370370368 0.15000000000000002 0.14537037037037034 0.1435185185185185,166.70000000001158 186.70000000001158 206.70000000001158 226.70000000001158 246.70000000001158 266.7000000000116 286.70000000001164 306.70000000001164 326.70000000001164 346.7000000000116 366.7000000000116 386.7000000000116 406.7000000000116 426.7000000000116 446.7000000000116 466.7000000000116 486.7000000000116 506.7000000000116 526.7000000000116 546.7000000000116 566.7000000000116 586.7000000000116 606.7000000000116 626.7000000000116 646.7000000000116 666.7000000000116 686.7000000000116 706.7000000000116 726.7000000000116 746.7000000000116 766.7000000000116 786.7000000000116 806.7000000000116 826.7000000000116 846.7000000000116 866.7000000000116 886.7000000000116
cb_10,24.0,enc_trial,stim,response,Fine Arts students,838.7000000000116,enc_trial,1.0,24.0,s_a_16_1,student_art,fold-b,piano,10.0,unique,far,paired,s_a_16_1.jpg,art,student-b1,STEM students,Fine Arts students,sub-06,1.0,1.0,1.0,1.0,0.49375 0.49375 0.49375 0.4944444444444445 0.4951388888888889 0.4958333333333334 0.4979166666666667 0.5 0.5027777777777778 0.5069444444444444 0.5111111111111111 0.5208333333333334 0.525 0.5298611111111111 0.5347222222222222 0.5458333333333333 0.5555555555555556 0.5736111111111111 0.5986111111111111 0.6354166666666666 0.6763888888888889 0.7527777777777778 0.7854166666666667 0.8090277777777778 0.8256944444444444 0.8395833333333333 0.8416666666666667 0.8416666666666667 0.8416666666666667 0.8416666666666667,0.8324074074074074 0.8296296296296296 0.8240740740740741 0.8175925925925926 0.8074074074074074 0.7962962962962963 0.7638888888888888 0.7453703703703703 0.725 0.7027777777777777 0.6787037037037037 0.6277777777777778 0.6009259259259259 0.5740740740740741 0.5472222222222223 0.500925925925926 0.4777777777777778 0.4518518518518518 0.4259259259259259 0.3944444444444445 0.36203703703703705 0.2972222222222223 0.2657407407407407 0.2388888888888889 0.2157407407407408 0.18796296296296305 0.1805555555555556 0.1777777777777778 0.17592592592592593 0.17407407407407405,149.90000000002328 169.90000000002328 189.90000000002328 209.90000000002328 229.90000000002328 249.90000000002328 269.9000000000233 289.9000000000233 309.9000000000233 329.9000000000233 349.90000000002334 369.90000000002334 389.90000000002334 409.90000000002334 429.90000000002334 449.90000000002334 469.90000000002334 489.90000000002334 509.90000000002334 529.9000000000234 549.9000000000234 569.9000000000233 589.9000000000233 609.9000000000233 629.9000000000233 649.9000000000233 669.9000000000233 689.9000000000232 709.9000000000232 729.9000000000232
cb_10,25.0,enc_trial,stim,response,Fine Arts students,1257.0,enc_trial,1.0,25.0,s_a_15_1,student_art,fold-d-single,drum kit,10.0,unique,,single,s_a_15_1.jpg,art,student-b1,STEM students,Fine Arts students,sub-06,1.0,,1.0,,0.5027777777777778 0.5027777777777778 0.5013888888888889 0.5 0.4972222222222222 0.49375 0.4868055555555556 0.4847222222222222 0.4826388888888889 0.4819444444444445 0.4847222222222222 0.4909722222222222 0.5 0.5152777777777777 0.5340277777777778 0.5548611111111111 0.6069444444444444 0.6298611111111111 0.6506944444444445 0.6659722222222222 0.6722222222222223 0.65625 0.63125 0.5902777777777778 0.5416666666666666 0.4305555555555556 0.3868055555555556 0.3625 0.3548611111111111 0.3631944444444444 0.4430555555555555 0.5097222222222222 0.59375 0.6805555555555556 0.7645833333333333 0.89375 0.9326388888888888 0.95 0.9548611111111112 0.9548611111111112 0.9548611111111112 0.9548611111111112 0.9548611111111112 0.9548611111111112 0.9548611111111112 0.9548611111111112 0.9548611111111112 0.9548611111111112 0.9548611111111112 0.9548611111111112 0.9548611111111112 0.9548611111111112 0.9534722222222224 0.9513888888888888 0.9479166666666666 0.9430555555555556 0.9277777777777778 0.9180555555555556 0.9090277777777778 0.9069444444444444,0.8342592592592593 0.8333333333333334 0.8305555555555555 0.8240740740740741 0.8157407407407408 0.8046296296296296 0.7740740740740741 0.7546296296296297 0.7314814814814814 0.7055555555555555 0.6481481481481481 0.6138888888888889 0.5814814814814815 0.5462962962962963 0.5101851851851852 0.4768518518518519 0.4101851851851852 0.3824074074074074 0.3564814814814815 0.33518518518518514 0.3194444444444444 0.2953703703703704 0.2861111111111111 0.2768518518518519 0.2666666666666667 0.2379629629629629 0.2222222222222222 0.21018518518518514 0.20092592592592595 0.19351851851851853 0.17962962962962958 0.17314814814814816 0.16759259259259265 0.16388888888888886 0.1611111111111111 0.15462962962962967 0.1527777777777778 0.1509259259259259 0.1509259259259259 0.1509259259259259 0.1509259259259259 0.1509259259259259 0.1509259259259259 0.1509259259259259 0.1509259259259259 0.1509259259259259 0.1509259259259259 0.1509259259259259 0.1509259259259259 0.1509259259259259 0.1509259259259259 0.1509259259259259 0.1518518518518519 0.1518518518518519 0.15370370370370368 0.15462962962962967 0.15740740740740744 0.15833333333333333 0.1592592592592592 0.1592592592592592,83.29999999998836 103.29999999998836 123.29999999998836 143.2999999999884 163.2999999999884 183.29999999998842 203.29999999998842 223.29999999998842 243.29999999998842 263.2999999999884 283.29999999998836 303.29999999998836 323.29999999998836 343.29999999998836 363.2999999999884 383.2999999999884 403.2999999999884 423.2999999999884 443.2999999999884 463.2999999999884 483.2999999999884 503.2999999999884 523.2999999999884 543.2999999999884 563.2999999999884 583.2999999999884 603.2999999999884 623.2999999999884 643.2999999999884 663.2999999999884 683.2999999999884 703.2999999999884 723.2999999999884 743.2999999999884 763.2999999999884 783.2999999999884 803.2999999999884 823.2999999999884 843.2999999999884 863.2999999999884 883.2999999999884 903.2999999999884 923.2999999999884 943.2999999999884 963.2999999999884 983.2999999999884 1003.2999999999884 1023.2999999999884 1043.2999999999884 1063.2999999999884 1083.2999999999884 1103.2999999999884 1123.2999999999884 1143.2999999999886 1163.2999999999886 1183.2999999999886 1203.2999999999886 1223.2999999999886 1243.2999999999886 1263.2999999999886
cb_10,26.0,enc_trial,stim,response,Fine Arts students,1232.3999999969965,enc_trial,1.0,26.0,s_sh_16_2,student_shared,fold-a,stapler,10.0,competing,far,paired,s_sh_16_2.jpg,,student-b1,STEM students,Fine Arts students,sub-06,1.0,1.0,1.0,0.0,0.4944444444444445 0.4944444444444445 0.4944444444444445 0.4944444444444445 0.4944444444444445 0.4958333333333334 0.5 0.5020833333333333 0.5048611111111111 0.5076388888888889 0.5125 0.5138888888888888 0.5131944444444444 0.5111111111111111 0.50625 0.4986111111111111 0.4673611111111111 0.4423611111111111 0.40902777777777777 0.3694444444444445 0.33055555555555555 0.2458333333333333 0.21041666666666667 0.18472222222222226 0.16319444444444445 0.14930555555555555 0.13680555555555554 0.13541666666666666 0.13541666666666666 0.13541666666666666 0.13541666666666666 0.13541666666666666 0.13541666666666666 0.13541666666666666 0.13680555555555554 0.14930555555555555 0.16180555555555556 0.1763888888888889 0.19791666666666666 0.23472222222222225 0.35625 0.4423611111111111 0.5333333333333333 0.61875 0.7020833333333333 0.7743055555555556 0.8625 0.8784722222222222 0.8826388888888889 0.8826388888888889 0.8826388888888889 0.8826388888888889 0.8826388888888889 0.8826388888888889 0.8826388888888889 0.8826388888888889,0.8305555555555555 0.8240740740740741 0.8148148148148149 0.8009259259259259 0.7805555555555556 0.7546296296296297 0.6944444444444444 0.6555555555555556 0.6194444444444445 0.5842592592592593 0.5120370370370371 0.47592592592592603 0.44166666666666665 0.4101851851851852 0.375 0.34444444444444444 0.2805555555555556 0.2518518518518519 0.225 0.20092592592592595 0.18148148148148147 0.14907407407407405 0.13796296296296295 0.13055555555555556 0.125 0.12037037037037035 0.1166666666666667 0.1166666666666667 0.1166666666666667 0.1166666666666667 0.1166666666666667 0.1166666666666667 0.1166666666666667 0.11759259259259258 0.11944444444444445 0.12685185185185188 0.13240740740740742 0.13703703703703707 0.14074074074074072 0.1444444444444445 0.1425925925925926 0.13796296296296295 0.13148148148148153 0.12592592592592589 0.12314814814814813 0.12407407407407413 0.13148148148148153 0.1333333333333333 0.1342592592592593 0.1342592592592593 0.1342592592592593 0.1342592592592593 0.1342592592592593 0.1342592592592593 0.1342592592592593 0.1342592592592593,116.69999999995345 136.69999999995343 156.69999999995343 176.69999999995343 196.69999999995338 216.69999999995338 236.69999999995338 256.6999999999533 276.6999999999533 296.6999999999533 316.6999999999533 336.6999999999532 356.6999999999532 376.6999999999532 396.69999999995315 416.69999999995315 436.69999999995315 456.69999999995315 476.69999999995315 496.69999999995315 516.6999999999532 536.6999999999532 556.6999999999532 576.6999999999532 596.6999999999532 616.6999999999532 636.6999999999532 656.6999999999532 676.699999999953 696.699999999953 716.699999999953 736.699999999953 756.699999999953 776.699999999953 796.699999999953 816.699999999953 836.699999999953 856.6999999999529 876.6999999999529 896.6999999999529 916.6999999999528 936.6999999999528 956.6999999999528 976.6999999999528 996.6999999999528 1016.6999999999528 1036.6999999999528 1056.6999999999528 1076.6999999999528 1096.6999999999528 1116.6999999999528 1136.6999999999528 1156.6999999999528 1176.6999999999528 1196.6999999999528 1216.6999999999528
cb_10,27.0,enc_trial,stim,response,STEM students,992.1999999955297,enc_trial,1.0,27.0,s_sh_14_1,student_shared,fold-b,printer,10.0,competing,close,paired,s_sh_14_1.jpg,,student-b1,STEM students,Fine Arts students,sub-06,1.0,1.0,1.0,0.0,0.4951388888888889 0.4951388888888889 0.4951388888888889 0.4951388888888889 0.4951388888888889 0.4951388888888889 0.4951388888888889 0.4951388888888889 0.4958333333333334 0.4965277777777778 0.4965277777777778 0.4965277777777778 0.4965277777777778 0.4965277777777778 0.4951388888888889 0.4895833333333333 0.4833333333333333 0.4736111111111111 0.4618055555555556 0.44375 0.3993055555555556 0.3729166666666667 0.3451388888888889 0.3138888888888889 0.28125 0.22013888888888888 0.18958333333333333 0.16319444444444445 0.13819444444444445 0.11736111111111112 0.08958333333333332 0.08125 0.07777777777777778 0.0763888888888889 0.07569444444444444 0.07569444444444444 0.07569444444444444 0.07569444444444444 0.0763888888888889 0.07777777777777778 0.08263888888888889 0.08541666666666667 0.08819444444444445 0.09097222222222222 0.09305555555555556 0.09375,0.8268518518518518 0.825925925925926 0.8231481481481482 0.8175925925925926 0.8101851851851851 0.7898148148148147 0.7740740740740741 0.7564814814814815 0.7361111111111112 0.712962962962963 0.6611111111111111 0.6333333333333333 0.6064814814814814 0.5787037037037037 0.5527777777777778 0.4981481481481481 0.4703703703703703 0.4444444444444444 0.4194444444444444 0.3925925925925926 0.3416666666666667 0.3148148148148148 0.29074074074074074 0.2657407407407407 0.2435185185185185 0.20740740740740726 0.19166666666666665 0.1787037037037037 0.16666666666666666 0.15648148148148144 0.1444444444444445 0.14074074074074072 0.13888888888888884 0.13796296296296295 0.13796296296296295 0.13796296296296295 0.13796296296296295 0.13796296296296295 0.13796296296296295 0.13796296296296295 0.13796296296296295 0.13796296296296295 0.13888888888888884 0.13981481481481484 0.14074074074074072 0.14074074074074072,50.0 70.0 90.0 110.0 130.0 150.0 170.0 190.0 210.0 230.0 250.0 270.0 290.0 310.0 330.0 350.0 370.0 390.0 410.0 430.0 450.0 470.0 490.0 510.0 530.0 550.0 570.0 590.0 610.0 630.0 650.0 670.0 690.0 710.0 730.0 750.0 770.0 790.0 810.0 830.0 850.0 870.0 890.0 910.0 930.0 950.0
cb_10,28.0,enc_trial,stim,response,STEM students,1075.3999999955413,enc_trial,1.0,28.0,s_s_11_1,student_stem,fold-d-single,scientific scale,10.0,unique,,single,s_s_11_1.jpg,stem,student-b1,STEM students,Fine Arts students,sub-06,1.0,,1.0,,0.5048611111111111 0.5090277777777777 0.5145833333333333 0.5201388888888889 0.5270833333333333 0.5409722222222222 0.5465277777777777 0.5493055555555556 0.5513888888888889 0.5534722222222223 0.5583333333333333 0.5618055555555556 0.5659722222222222 0.5708333333333333 0.5763888888888888 0.5868055555555556 0.5909722222222222 0.5944444444444444 0.5965277777777778 0.5993055555555555 0.60625 0.6118055555555556 0.6180555555555556 0.6236111111111111 0.63125 0.6506944444444445 0.6618055555555555 0.6729166666666667 0.6833333333333333 0.6923611111111111 0.6979166666666666 0.6916666666666667 0.675 0.6479166666666667 0.60625 0.4944444444444445 0.43125 0.3729166666666667 0.32569444444444445 0.2833333333333333 0.22569444444444445 0.20625 0.19375 0.18611111111111112 0.18125 0.17777777777777778 0.17569444444444446 0.17152777777777778 0.1673611111111111 0.16180555555555556 0.14930555555555555 0.1451388888888889 0.14305555555555555,0.8277777777777777 0.8287037037037037 0.8305555555555555 0.8324074074074074 0.8342592592592593 0.837037037037037 0.837962962962963 0.837962962962963 0.837962962962963 0.837962962962963 0.8342592592592593 0.8296296296296296 0.8203703703703704 0.8083333333333333 0.7907407407407407 0.7453703703703703 0.7175925925925926 0.6888888888888889 0.6611111111111111 0.6324074074074074 0.587037037037037 0.5666666666666667 0.5472222222222223 0.5296296296296297 0.5101851851851852 0.4675925925925926 0.4435185185185185 0.4185185185185185 0.3935185185185185 0.3675925925925926 0.3185185185185185 0.2962962962962963 0.2768518518518519 0.2620370370370371 0.2490740740740741 0.2305555555555555 0.2222222222222222 0.2138888888888889 0.20740740740740726 0.20185185185185184 0.1907407407407408 0.18703703703703692 0.18425925925925926 0.18240740740740746 0.18148148148148147 0.1805555555555556 0.17962962962962958 0.1787037037037037 0.17685185185185182 0.17500000000000004 0.1703703703703704 0.1694444444444444 0.1685185185185185,0.0 20.0 40.0 60.0 80.0 100.0 120.0 140.0 160.0 180.0 200.0 220.0 240.0 260.0 280.0 300.0 320.0 340.0 360.0 380.0 400.0 420.0 440.0 460.0 480.0 500.0 520.0 540.0 560.0 580.0 600.0 620.0 640.0 660.0 680.0 700.0 720.0 740.0 760.0 780.0 800.0 820.0 840.0 860.0 880.0 900.0 920.0 940.0 960.0 980.0 1000.0 1020.0 1040.0
cb_10,29.0,enc_trial,stim,response,STEM students,1085.0999999999767,enc_trial,1.0,29.0,s_sh_23_2,student_shared,fold-a,ballpoint pen,10.0,competing,far,paired,s_sh_23_2.jpg,,student-b1,STEM students,Fine Arts students,sub-06,1.0,1.0,1.0,1.0,0.5083333333333333 0.5083333333333333 0.5083333333333333 0.5083333333333333 0.5090277777777777 0.5138888888888888 0.5166666666666667 0.5201388888888889 0.5243055555555556 0.5277777777777778 0.5326388888888889 0.5347222222222222 0.5368055555555555 0.5388888888888889 0.5416666666666666 0.55 0.5555555555555556 0.5631944444444444 0.5729166666666666 0.5868055555555556 0.6055555555555555 0.6548611111111111 0.6826388888888889 0.7111111111111111 0.7361111111111112 0.7736111111111111 0.7881944444444444 0.7972222222222223 0.8020833333333334 0.8034722222222223 0.7979166666666667 0.7847222222222222 0.7611111111111111 0.7222222222222222 0.6694444444444444 0.5201388888888889 0.4305555555555556 0.34652777777777777 0.2763888888888889 0.2180555555555556 0.15069444444444444 0.1375 0.1326388888888889 0.13194444444444445 0.13194444444444445 0.13194444444444445 0.13055555555555556 0.12777777777777774 0.125 0.12291666666666665 0.12222222222222222,0.8388888888888889 0.8388888888888889 0.8388888888888889 0.8388888888888889 0.8361111111111111 0.8203703703703704 0.8055555555555556 0.787037037037037 0.7666666666666666 0.7416666666666667 0.6861111111111111 0.6555555555555556 0.625 0.5962962962962963 0.5675925925925926 0.512962962962963 0.487037037037037 0.462037037037037 0.4388888888888889 0.4138888888888889 0.3861111111111111 0.3277777777777777 0.29907407407407405 0.27129629629629626 0.24722222222222226 0.21018518518518514 0.1953703703703704 0.18518518518518529 0.1787037037037037 0.17592592592592593 0.17222222222222228 0.1703703703703704 0.16666666666666666 0.1620370370370371 0.15740740740740744 0.15555555555555556 0.1620370370370371 0.1694444444444444 0.17685185185185182 0.18240740740740746 0.18796296296296305 0.18888888888888888 0.1898148148148148 0.1898148148148148 0.1898148148148148 0.1898148148148148 0.1898148148148148 0.18796296296296305 0.18611111111111112 0.18333333333333326 0.18148148148148147,83.29999999998836 103.29999999998836 123.29999999998836 143.2999999999884 163.2999999999884 183.29999999998842 203.29999999998842 223.29999999998842 243.29999999998842 263.2999999999884 283.29999999998836 303.29999999998836 323.29999999998836 343.29999999998836 363.2999999999884 383.2999999999884 403.2999999999884 423.2999999999884 443.2999999999884 463.2999999999884 483.2999999999884 503.2999999999884 523.2999999999884 543.2999999999884 563.2999999999884 583.2999999999884 603.2999999999884 623.2999999999884 643.2999999999884 663.2999999999884 683.2999999999884 703.2999999999884 723.2999999999884 743.2999999999884 763.2999999999884 783.2999999999884 803.2999999999884 823.2999999999884 843.2999999999884 863.2999999999884 883.2999999999884 903.2999999999884 923.2999999999884 943.2999999999884 963.2999999999884 983.2999999999884 1003.2999999999884 1023.2999999999884 1043.2999999999884 1063.2999999999884 1083.2999999999884
cb_10,30.0,enc_trial,stim,response,Fine Arts students,928.7999999985333,enc_trial,1.0,30.0,s_sh_14_2,student_shared,fold-b,printer,10.0,competing,close,paired,s_sh_14_2.jpg,,student-b1,STEM students,Fine Arts students,sub-06,1.0,1.0,1.0,0.0,0.5055555555555555 0.5048611111111111 0.5041666666666667 0.5027777777777778 0.5013888888888889 0.4993055555555556 0.4986111111111111 0.4979166666666667 0.4979166666666667 0.4979166666666667 0.4993055555555556 0.5013888888888889 0.5055555555555555 0.5104166666666666 0.5173611111111112 0.5326388888888889 0.5416666666666666 0.55 0.5597222222222222 0.5701388888888889 0.5916666666666667 0.6027777777777777 0.6131944444444445 0.6236111111111111 0.6347222222222222 0.6597222222222222 0.6736111111111112 0.6895833333333333 0.7076388888888889 0.7284722222222222 0.7680555555555556 0.7854166666666667 0.8013888888888889 0.8138888888888889 0.8236111111111111 0.8326388888888889 0.8333333333333334 0.8333333333333334 0.8333333333333334 0.8333333333333334 0.8333333333333334 0.8333333333333334 0.8333333333333334 0.8333333333333334 0.8340277777777778 0.8340277777777778 0.8354166666666667,0.85 0.8462962962962963 0.8416666666666667 0.8351851851851853 0.8268518518518518 0.8046296296296296 0.7925925925925926 0.7805555555555556 0.7685185185185185 0.7555555555555555 0.7296296296296296 0.7157407407407408 0.700925925925926 0.6851851851851851 0.6694444444444445 0.6342592592592593 0.6148148148148148 0.5953703703703703 0.5731481481481482 0.55 0.5018518518518518 0.4777777777777778 0.4546296296296296 0.4296296296296296 0.4055555555555556 0.3592592592592593 0.33611111111111114 0.3111111111111111 0.28796296296296303 0.2629629629629629 0.2222222222222222 0.2064814814814815 0.1944444444444444 0.18425925925925926 0.17592592592592593 0.16759259259259265 0.16666666666666666 0.16666666666666666 0.16666666666666666 0.16666666666666666 0.16666666666666666 0.16666666666666666 0.16666666666666666 0.16666666666666666 0.16666666666666666 0.16666666666666666 0.16666666666666666,0.0 20.0 40.0 60.0 80.0 100.0 120.0 140.0 160.0 180.0 200.0 220.0 240.0 260.0 280.0 300.0 320.0 340.0 360.0 380.0 400.0 420.0 440.0 460.0 480.0 500.0 520.0 540.0 560.0 580.0 600.0 620.0 640.0 660.0 680.0 700.0 720.0 740.0 760.0 780.0 800.0 820.0 840.0 860.0 880.0 900.0 920.0
cb_10,31.0,enc_trial,stim,response,Fine Arts students,1412.0999999970081,enc_trial,1.0,31.0,s_a_07_1,student_art,fold-d-single,yarn,10.0,unique,,single,s_a_07_1.jpg,art,student-b1,STEM students,Fine Arts students,sub-06,1.0,,1.0,,0.5229166666666667 0.5215277777777778 0.5194444444444445 0.5159722222222223 0.5104166666666666 0.4951388888888889 0.4840277777777778 0.4743055555555555 0.4618055555555556 0.45 0.4409722222222222 0.4263888888888889 0.4208333333333333 0.4152777777777778 0.4111111111111111 0.4076388888888889 0.4006944444444445 0.3958333333333333 0.3902777777777778 0.38333333333333336 0.3743055555555556 0.34930555555555554 0.3326388888888889 0.31527777777777777 0.2951388888888889 0.25 0.225 0.20347222222222225 0.1840277777777778 0.16875 0.14791666666666667 0.14097222222222222 0.13541666666666666 0.1326388888888889 0.13194444444444445 0.13472222222222222 0.1423611111111111 0.15833333333333333 0.1951388888888889 0.2534722222222222 0.4131944444444444 0.5027777777777778 0.5743055555555555 0.6326388888888889 0.6784722222222223 0.7236111111111111 0.7298611111111111 0.7305555555555555 0.73125 0.7347222222222223 0.7472222222222222 0.7555555555555555 0.7618055555555555 0.7694444444444445 0.7770833333333333 0.7847222222222222 0.7944444444444444 0.7986111111111112 0.8020833333333334 0.8034722222222223 0.8041666666666667 0.8048611111111111 0.8055555555555556 0.80625 0.8083333333333333 0.8166666666666667 0.875 0.9 0.9097222222222222 0.90625,0.8083333333333333 0.8055555555555556 0.799074074074074 0.7898148148148147 0.7777777777777778 0.7425925925925926 0.7175925925925926 0.6935185185185185 0.662962962962963 0.6305555555555555 0.5972222222222222 0.5305555555555556 0.5 0.4685185185185186 0.4361111111111111 0.40648148148148144 0.34444444444444444 0.3148148148148148 0.2888888888888889 0.26388888888888884 0.2425925925925925 0.20925925925925928 0.1962962962962963 0.18611111111111112 0.17685185185185182 0.1601851851851852 0.15370370370370368 0.14722222222222225 0.14166666666666672 0.13703703703703707 0.13240740740740742 0.13148148148148153 0.13148148148148153 0.13148148148148153 0.13148148148148153 0.13148148148148153 0.13148148148148153 0.1333333333333333 0.13703703703703707 0.14166666666666672 0.1509259259259259 0.15370370370370368 0.15370370370370368 0.15370370370370368 0.1527777777777778 0.1518518518518519 0.1518518518518519 0.1518518518518519 0.1518518518518519 0.1518518518518519 0.15000000000000002 0.15000000000000002 0.14907407407407405 0.14814814814814814 0.14814814814814814 0.14814814814814814 0.14814814814814814 0.14814814814814814 0.14907407407407405 0.14907407407407405 0.14907407407407405 0.14907407407407405 0.14907407407407405 0.14907407407407405 0.15000000000000002 0.15000000000000002 0.1509259259259259 0.15648148148148144 0.16388888888888886 0.16759259259259265,33.29999999998836 53.29999999998836 73.29999999998836 93.29999999998836 113.29999999998836 133.29999999998836 153.2999999999884 173.29999999998836 193.29999999998842 213.29999999998842 233.29999999998842 253.29999999998842 273.2999999999884 293.29999999998836 313.29999999998836 333.29999999998836 353.2999999999884 373.2999999999884 393.2999999999884 413.2999999999884 433.2999999999884 453.2999999999884 473.2999999999884 493.2999999999884 513.2999999999884 533.2999999999884 553.2999999999884 573.2999999999884 593.2999999999884 613.2999999999884 633.2999999999884 653.2999999999884 673.2999999999884 693.2999999999884 713.2999999999884 733.2999999999884 753.2999999999884 773.2999999999884 793.2999999999884 813.2999999999884 833.2999999999884 853.2999999999884 873.2999999999884 893.2999999999884 913.2999999999884 933.2999999999884 953.2999999999884 973.2999999999884 993.2999999999884 1013.2999999999884 1033.2999999999884 1053.2999999999884 1073.2999999999884 1093.2999999999884 1113.2999999999884 1133.2999999999886 1153.2999999999886 1173.2999999999886 1193.2999999999886 1213.2999999999886 1233.2999999999886 1253.2999999999886 1273.2999999999886 1293.2999999999886 1313.2999999999886 1333.2999999999886 1353.2999999999886 1373.2999999999886 1393.2999999999884 1413.2999999999884
cb_10,32.0,enc_trial,stim,response,STEM students,826.4000000000232,enc_trial,1.0,32.0,s_s_02_2,student_stem,fold-b,flask,10.0,unique,far,paired,s_s_02_2.jpg,stem,student-b1,STEM students,Fine Arts students,sub-06,1.0,1.0,1.0,0.0,0.4902777777777778 0.4902777777777778 0.4902777777777778 0.4895833333333333 0.4881944444444444 0.4854166666666666 0.4833333333333333 0.4798611111111111 0.475 0.4680555555555556 0.4583333333333333 0.4576388888888889 0.4576388888888889 0.4576388888888889 0.4576388888888889 0.4576388888888889 0.4576388888888889 0.4576388888888889 0.4576388888888889 0.4576388888888889 0.4576388888888889 0.4576388888888889 0.4576388888888889 0.4576388888888889 0.4576388888888889 0.44722222222222224 0.44722222222222224 0.44027777777777777 0.4256944444444444 0.4041666666666667 0.33611111111111114 0.2888888888888889 0.24444444444444444 0.2125 0.1902777777777777 0.17708333333333334 0.1763888888888889,0.8537037037037037 0.8472222222222222 0.837962962962963 0.825925925925926 0.8083333333333333 0.7648148148148148 0.7361111111111112 0.7037037037037037 0.6703703703703704 0.6333333333333333 0.5638888888888889 0.537037037037037 0.5287037037037037 0.5287037037037037 0.5287037037037037 0.5287037037037037 0.5287037037037037 0.5287037037037037 0.5287037037037037 0.5287037037037037 0.5287037037037037 0.5287037037037037 0.5287037037037037 0.5287037037037037 0.5259259259259259 0.5101851851851852 0.4916666666666667 0.4657407407407408 0.437962962962963 0.4027777777777778 0.3175925925925925 0.2675925925925926 0.22129629629629632 0.1898148148148148 0.1703703703703704 0.16296296296296298 0.1620370370370371,16.700000000011638 36.70000000001164 56.70000000001164 76.70000000001166 96.70000000001166 116.70000000001166 136.7000000000117 156.7000000000117 176.70000000001167 196.70000000001167 216.70000000001167 236.70000000001167 256.7000000000117 276.7000000000117 296.7000000000117 316.7000000000117 336.7000000000117 356.7000000000117 376.7000000000117 396.7000000000117 416.7000000000117 436.7000000000117 456.7000000000117 476.7000000000117 496.70000000001176 516.7000000000119 536.7000000000119 556.7000000000119 576.7000000000118 596.7000000000118 616.7000000000118 636.7000000000118 656.7000000000118 676.7000000000118 696.7000000000118 716.7000000000118 736.7000000000118
cb_10,33.0,enc_trial,stim,response,Fine Arts students,767.8999999940279,enc_trial,1.0,33.0,s_a_17_2,student_art,fold-b,microphone,10.0,unique,far,paired,s_a_17_2.jpg,art,student-b1,STEM students,Fine Arts students,sub-06,1.0,1.0,1.0,1.0,0.5145833333333333 0.51875 0.5256944444444445 0.5347222222222222 0.5465277777777777 0.5743055555555555 0.5902777777777778 0.6076388888888888 0.6243055555555556 0.6402777777777777 0.6534722222222222 0.6631944444444444 0.6631944444444444 0.6631944444444444 0.6631944444444444 0.6631944444444444 0.6631944444444444 0.6631944444444444 0.6631944444444444 0.6631944444444444 0.6638888888888889 0.6694444444444444 0.6784722222222223 0.6875 0.7076388888888889 0.7527777777777778 0.7743055555555556 0.7944444444444444 0.8118055555555556 0.8305555555555556 0.8458333333333333 0.8583333333333333,0.7861111111111111 0.7648148148148148 0.7379629629629629 0.7083333333333333 0.674074074074074 0.6083333333333334 0.575 0.5425925925925925 0.5138888888888888 0.487037037037037 0.462037037037037 0.4361111111111111 0.4361111111111111 0.4361111111111111 0.4361111111111111 0.4361111111111111 0.4361111111111111 0.4361111111111111 0.4361111111111111 0.4361111111111111 0.437962962962963 0.437037037037037 0.4277777777777778 0.4157407407407408 0.3935185185185185 0.325 0.2861111111111111 0.2509259259259259 0.2222222222222222 0.19814814814814816 0.18148148148148147 0.1685185185185185,0.0 20.0 40.0 60.0 80.0 100.0 120.0 140.0 160.0 180.0 200.0 220.0 240.0 260.0 280.0 300.0 320.0 340.0 360.0 380.0 400.0 420.0 440.0 460.0 480.0 500.0 520.0 540.0 560.0 580.0 600.0 620.0
cb_10,34.0,enc_trial,stim,response,STEM students,972.1999999940164,enc_trial,1.0,34.0,s_sh_22_1,student_shared,fold-c-single,hole puncher,10.0,competing,,single,s_sh_22_1.jpg,,student-b1,STEM students,Fine Arts students,sub-06,1.0,,1.0,,0.4965277777777778 0.4958333333333334 0.4944444444444445 0.4930555555555556 0.4909722222222222 0.4854166666666666 0.48125 0.4756944444444444 0.4722222222222222 0.4701388888888889 0.4673611111111111 0.4652777777777778 0.4625 0.4569444444444444 0.45 0.4291666666666665 0.4131944444444444 0.3951388888888889 0.3743055555555556 0.34930555555555554 0.29444444444444445 0.2618055555555556 0.23125 0.2048611111111111 0.18263888888888888 0.15208333333333332 0.1423611111111111 0.13680555555555554 0.13402777777777775 0.13194444444444445 0.12916666666666668 0.1284722222222222 0.12708333333333333 0.12708333333333333 0.12638888888888888,0.8416666666666667 0.837962962962963 0.8333333333333334 0.8268518518518518 0.8175925925925926 0.7925925925925926 0.7722222222222223 0.7444444444444445 0.712962962962963 0.6731481481481482 0.587037037037037 0.5398148148148147 0.4990740740740741 0.4592592592592593 0.4240740740740741 0.3666666666666667 0.34259259259259256 0.3203703703703704 0.30092592592592593 0.2796296296296297 0.2425925925925925 0.22685185185185186 0.21203703703703705 0.20185185185185184 0.19351851851851853 0.18240740740740746 0.1787037037037037 0.17685185185185182 0.17592592592592593 0.17500000000000004 0.17407407407407405 0.17407407407407405 0.17314814814814816 0.17314814814814816 0.17314814814814816,83.19999999995345 103.19999999995345 123.19999999995345 143.19999999995343 163.19999999995343 183.19999999995343 203.19999999995343 223.19999999995343 243.19999999995343 263.19999999995343 283.19999999995343 303.19999999995343 323.19999999995343 343.19999999995343 363.19999999995343 383.19999999995343 403.19999999995343 423.19999999995343 443.19999999995343 463.19999999995343 483.19999999995343 503.19999999995343 523.1999999999534 543.1999999999534 563.1999999999534 583.1999999999534 603.1999999999534 623.1999999999534 643.1999999999534 663.1999999999534 683.1999999999534 703.1999999999533 723.1999999999533 743.1999999999533 763.1999999999533
cb_10,35.0,enc_trial,stim,response,Fine Arts students,748.7999999955065,enc_trial,1.0,35.0,s_sh_10_1,student_shared,fold-b,scissors,10.0,competing,close,paired,s_sh_10_1.jpg,,student-b1,STEM students,Fine Arts students,sub-06,1.0,1.0,1.0,0.0,0.5006944444444444 0.5013888888888889 0.5020833333333333 0.5034722222222222 0.50625 0.5159722222222223 0.5243055555555556 0.5361111111111111 0.5493055555555556 0.5652777777777778 0.6041666666666666 0.6236111111111111 0.6409722222222223 0.65625 0.6708333333333333 0.6958333333333333 0.7090277777777778 0.7256944444444444 0.7423611111111111 0.7625 0.8013888888888889 0.81875 0.8319444444444445 0.8423611111111111 0.8506944444444444 0.8597222222222223 0.8625 0.8652777777777778 0.8673611111111111 0.8701388888888889 0.875 0.8777777777777778 0.8791666666666667 0.8805555555555555 0.88125,0.8361111111111111 0.8277777777777777 0.8166666666666667 0.8037037037037037 0.7861111111111111 0.7416666666666667 0.7101851851851853 0.6731481481481482 0.6324074074074074 0.587962962962963 0.4777777777777778 0.4185185185185185 0.3648148148148148 0.3212962962962963 0.2888888888888889 0.25370370370370365 0.2435185185185185 0.2333333333333333 0.225 0.2148148148148148 0.19351851851851853 0.18425925925925926 0.17685185185185182 0.17129629629629628 0.16574074074074074 0.15833333333333333 0.15462962962962967 0.1527777777777778 0.15000000000000002 0.14814814814814814 0.1435185185185185 0.14166666666666672 0.14074074074074072 0.14074074074074072 0.14074074074074072,66.69999999995343 86.69999999995345 106.69999999995345 126.69999999995345 146.69999999995343 166.69999999995343 186.69999999995343 206.69999999995343 226.69999999995343 246.69999999995343 266.69999999995343 286.69999999995343 306.69999999995343 326.69999999995343 346.69999999995343 366.69999999995343 386.69999999995343 406.69999999995343 426.69999999995343 446.69999999995343 466.69999999995343 486.69999999995343 506.69999999995343 526.6999999999534 546.6999999999534 566.6999999999534 586.6999999999534 606.6999999999534 626.6999999999534 646.6999999999534 666.6999999999534 686.6999999999534 706.6999999999533 726.6999999999533 746.6999999999533
cb_10,36.0,enc_trial,stim,response,STEM students,1333.1999999999534,enc_trial,1.0,36.0,s_sh_19_2,student_shared,fold-a,portable plastic drawer,10.0,competing,far,paired,s_sh_19_2.jpg,,student-b1,STEM students,Fine Arts students,sub-06,1.0,1.0,1.0,1.0,0.5208333333333334 0.5194444444444445 0.5173611111111112 0.5152777777777777 0.5125 0.5027777777777778 0.4965277777777778 0.4888888888888889 0.4798611111111111 0.4708333333333333 0.4513888888888889 0.4423611111111111 0.4340277777777778 0.4263888888888889 0.4201388888888889 0.40902777777777777 0.4055555555555556 0.4041666666666667 0.4041666666666667 0.4055555555555556 0.4111111111111111 0.4152777777777778 0.4208333333333333 0.4263888888888889 0.4326388888888889 0.4506944444444445 0.4659722222222222 0.4868055555555556 0.5131944444444444 0.5423611111111111 0.6125 0.6493055555555556 0.6833333333333333 0.7173611111111111 0.7465277777777778 0.7944444444444444 0.8104166666666667 0.8229166666666666 0.83125 0.8368055555555556 0.8416666666666667 0.8416666666666667 0.8416666666666667 0.8416666666666667 0.8409722222222222 0.81875 0.7916666666666666 0.7472222222222222 0.6840277777777778 0.6118055555555556 0.4361111111111111 0.3631944444444444 0.29791666666666666 0.2465277777777778 0.2076388888888889 0.16458333333333333 0.15625 0.15208333333333332 0.14930555555555555 0.14791666666666667 0.1423611111111111 0.1375 0.13194444444444445 0.12777777777777774 0.12638888888888888,0.8268518518518518 0.8231481481481482 0.8157407407407408 0.8064814814814815 0.7935185185185185 0.7592592592592593 0.7379629629629629 0.712962962962963 0.6851851851851851 0.6546296296296297 0.5842592592592593 0.5453703703703704 0.5037037037037038 0.4638888888888889 0.4296296296296296 0.3648148148148148 0.337037037037037 0.3148148148148148 0.2953703703703704 0.2805555555555556 0.2583333333333333 0.2509259259259259 0.2425925925925925 0.2361111111111112 0.2287037037037037 0.21203703703703705 0.20370370370370366 0.1953703703703704 0.18703703703703692 0.1805555555555556 0.17129629629629628 0.1703703703703704 0.1703703703703704 0.1703703703703704 0.1703703703703704 0.16481481481481486 0.1601851851851852 0.15462962962962967 0.15000000000000002 0.14629629629629626 0.14166666666666672 0.14166666666666672 0.14166666666666672 0.14166666666666672 0.14166666666666672 0.14074074074074072 0.13796296296296295 0.1342592592592593 0.13240740740740742 0.13240740740740742 0.1351851851851852 0.13703703703703707 0.14166666666666672 0.14629629629629626 0.1509259259259259 0.15555555555555556 0.15648148148148144 0.15740740740740744 0.15740740740740744 0.15740740740740744 0.15740740740740744 0.15740740740740744 0.15740740740740744 0.15740740740740744 0.15740740740740744,50.0 70.0 90.0 110.0 130.0 150.0 170.0 190.0 210.0 230.0 250.0 270.0 290.0 310.0 330.0 350.0 370.0 390.0 410.0 430.0 450.0 470.0 490.0 510.0 530.0 550.0 570.0 590.0 610.0 630.0 650.0 670.0 690.0 710.0 730.0 750.0 770.0 790.0 810.0 830.0 850.0 870.0 890.0 910.0 930.0 950.0 970.0 990.0 1010.0 1030.0 1050.0 1070.0 1090.0 1110.0 1130.0 1150.0 1170.0 1190.0 1210.0 1230.0 1250.0 1270.0 1290.0 1310.0 1330.0
