Current Spreadsheet,Trial Number,Display,Screen,Response Type,Response,Reaction Time,display,block,block_trial,stimulus_id,expected_goal,fold,stimulus_name,c_group,condition,within_block_dist,paired_status,stimulus_path,expected_location,block_split,respStim_1,respStim_2,sub_label,acc,both_enc_acc,assoc_stim1_acc,assoc_stim2_acc,x_pos,y_pos,time_trajectories
cb_03,1.0,enc_trial,stim,response,Iceland trip,1864.8000000000034,enc_trial,1.0,1.0,t_i_20_1,travel_Iceland,fold-b-single,lantern,3.0,unique,,single,t_i_20_1.jpg,Iceland,travel-b1,Iceland trip,Miami trip,sub-28,1.0,,1.0,,0.4951388888888889 0.4951388888888889 0.4951388888888889 0.4951388888888889 0.4951388888888889 0.4951388888888889 0.4951388888888889 0.4951388888888889 0.4951388888888889 0.4951388888888889 0.4951388888888889 0.4951388888888889 0.4951388888888889 0.4951388888888889 0.4951388888888889 0.4951388888888889 0.4951388888888889 0.4951388888888889 0.4951388888888889 0.4951388888888889 0.4951388888888889 0.4951388888888889 0.4951388888888889 0.4951388888888889 0.4951388888888889 0.4951388888888889 0.4951388888888889 0.4951388888888889 0.4951388888888889 0.4951388888888889 0.4951388888888889 0.4951388888888889 0.4951388888888889 0.4951388888888889 0.4951388888888889 0.4951388888888889 0.4951388888888889 0.4951388888888889 0.4951388888888889 0.4951388888888889 0.4951388888888889 0.4951388888888889 0.4951388888888889 0.4951388888888889 0.4951388888888889 0.4951388888888889 0.4951388888888889 0.4951388888888889 0.4951388888888889 0.4951388888888889 0.4951388888888889 0.4951388888888889 0.4951388888888889 0.4951388888888889 0.4951388888888889 0.4951388888888889 0.4951388888888889 0.4951388888888889 0.4951388888888889 0.4951388888888889 0.4951388888888889 0.4854166666666666 0.4590277777777778 0.4222222222222222 0.3631944444444444 0.3159722222222222 0.2743055555555556 0.2458333333333333 0.2215277777777777 0.20347222222222225 0.18819444444444444 0.16666666666666666 0.14305555555555555 0.12222222222222222 0.1125 0.11180555555555556 0.11180555555555556 0.1111111111111111 0.1 0.09722222222222222 0.09722222222222222 0.09722222222222222 0.09722222222222222 0.09930555555555556 0.10208333333333333 0.10486111111111113 0.10486111111111113 0.10555555555555557,0.812037037037037 0.812037037037037 0.812037037037037 0.812037037037037 0.812037037037037 0.812037037037037 0.812037037037037 0.812037037037037 0.812037037037037 0.812037037037037 0.812037037037037 0.812037037037037 0.812037037037037 0.812037037037037 0.812037037037037 0.812037037037037 0.812037037037037 0.812037037037037 0.812037037037037 0.812037037037037 0.812037037037037 0.812037037037037 0.812037037037037 0.812037037037037 0.812037037037037 0.812037037037037 0.812037037037037 0.812037037037037 0.812037037037037 0.812037037037037 0.812037037037037 0.812037037037037 0.812037037037037 0.812037037037037 0.812037037037037 0.812037037037037 0.812037037037037 0.812037037037037 0.812037037037037 0.812037037037037 0.812037037037037 0.812037037037037 0.812037037037037 0.812037037037037 0.812037037037037 0.812037037037037 0.812037037037037 0.812037037037037 0.812037037037037 0.812037037037037 0.812037037037037 0.812037037037037 0.812037037037037 0.812037037037037 0.812037037037037 0.812037037037037 0.812037037037037 0.812037037037037 0.812037037037037 0.812037037037037 0.8064814814814815 0.7555555555555555 0.6861111111111111 0.6027777777777779 0.487037037037037 0.4138888888888889 0.3583333333333333 0.3240740740740741 0.29166666666666663 0.26481481481481484 0.2416666666666667 0.2138888888888889 0.17962962962962958 0.14722222222222225 0.1342592592592593 0.1333333333333333 0.1333333333333333 0.12777777777777774 0.09907407407407408 0.09351851851851856 0.09351851851851856 0.09351851851851856 0.0981481481481481 0.10833333333333328 0.1157407407407407 0.12129629629629635 0.12314814814814813 0.12407407407407413,109.10000000000582 129.10000000000582 149.10000000000582 169.10000000000582 189.10000000000585 209.10000000000585 229.10000000000585 249.10000000000585 269.1000000000058 289.1000000000058 309.1000000000058 329.1000000000058 349.1000000000058 369.1000000000058 389.1000000000058 409.1000000000058 429.1000000000058 449.1000000000058 469.1000000000058 489.1000000000058 509.1000000000058 529.1000000000058 549.1000000000058 569.1000000000057 589.1000000000057 609.1000000000057 629.1000000000057 649.1000000000057 669.1000000000057 689.1000000000058 709.1000000000058 729.1000000000058 749.1000000000058 769.1000000000058 789.1000000000058 809.1000000000058 829.1000000000058 849.1000000000058 869.1000000000058 889.1000000000058 909.1000000000058 929.1000000000058 949.1000000000058 969.1000000000058 989.1000000000058 1009.1000000000058 1029.1000000000058 1049.1000000000058 1069.1000000000058 1089.1000000000058 1109.1000000000058 1129.1000000000058 1149.1000000000058 1169.1000000000058 1189.1000000000058 1209.1000000000058 1229.1000000000058 1249.1000000000058 1269.1000000000058 1289.1000000000058 1309.1000000000058 1329.1000000000058 1349.1000000000058 1369.1000000000058 1389.1000000000058 1409.1000000000058 1429.1000000000058 1449.1000000000058 1469.1000000000058 1489.1000000000058 1509.1000000000058 1529.1000000000058 1549.1000000000058 1569.1000000000058 1589.1000000000058 1609.1000000000058 1629.1000000000058 1649.1000000000058 1669.1000000000058 1689.1000000000058 1709.1000000000058 1729.1000000000058 1749.1000000000058 1769.1000000000058 1789.1000000000058 1809.1000000000056 1829.1000000000056 1849.1000000000056
cb_03,2.0,enc_trial,stim,response,Miami trip,2592.4000000119267,enc_trial,1.0,2.0,t_s_24_1,travel_shared,fold-c,ear plugs,3.0,competing,far,paired,t_s_24_1.jpg,,travel-b1,Iceland trip,Miami trip,sub-28,0.0,0.0,1.0,1.0,0.50625 0.50625 0.50625 0.50625 0.50625 0.50625 0.50625 0.50625 0.50625 0.50625 0.50625 0.50625 0.50625 0.50625 0.50625 0.5069444444444444 0.5069444444444444 0.5069444444444444 0.5083333333333333 0.5090277777777777 0.5097222222222222 0.5118055555555555 0.5131944444444444 0.5138888888888888 0.5138888888888888 0.5138888888888888 0.5138888888888888 0.5138888888888888 0.5138888888888888 0.5138888888888888 0.5138888888888888 0.5138888888888888 0.5138888888888888 0.5138888888888888 0.5138888888888888 0.5138888888888888 0.5138888888888888 0.5138888888888888 0.5138888888888888 0.5083333333333333 0.4993055555555556 0.4909722222222222 0.4833333333333333 0.4743055555555555 0.4645833333333334 0.4597222222222222 0.45625 0.4541666666666666 0.4527777777777778 0.4527777777777778 0.4527777777777778 0.4513888888888889 0.4513888888888889 0.4506944444444445 0.4506944444444445 0.4548611111111111 0.4756944444444444 0.5194444444444445 0.6194444444444445 0.6923611111111111 0.7402777777777778 0.7784722222222222 0.7930555555555555 0.7972222222222223 0.7972222222222223 0.7972222222222223 0.7986111111111112 0.8027777777777778 0.8104166666666667 0.8125 0.8131944444444444 0.8152777777777778 0.8166666666666667 0.8131944444444444 0.78125 0.7263888888888889 0.6159722222222223 0.4604166666666666 0.31319444444444444 0.27847222222222223 0.27847222222222223 0.3 0.3104166666666667 0.3125 0.31527777777777777 0.31666666666666665 0.31805555555555554 0.31875 0.31875 0.31666666666666665 0.3020833333333333 0.25416666666666665 0.21597222222222226 0.18125 0.15902777777777774 0.1486111111111111 0.13541666666666666 0.11388888888888887 0.10625 0.10625 0.10625 0.10625 0.10625 0.10972222222222222 0.12361111111111113 0.16597222222222222 0.225 0.3236111111111111 0.4520833333333333 0.5284722222222222 0.5784722222222223 0.6041666666666666 0.6222222222222222 0.63125 0.6479166666666667 0.6847222222222222 0.7104166666666667 0.7284722222222222 0.7319444444444444 0.7381944444444445 0.7527777777777778 0.7854166666666667 0.8333333333333334 0.8465277777777778 0.8465277777777778 0.8465277777777778,0.8287037037037037 0.8361111111111111 0.8425925925925926 0.8425925925925926 0.8425925925925926 0.8425925925925926 0.8425925925925926 0.8425925925925926 0.8425925925925926 0.8425925925925926 0.8425925925925926 0.8425925925925926 0.8425925925925926 0.8425925925925926 0.8425925925925926 0.8416666666666667 0.8416666666666667 0.8407407407407408 0.8342592592592593 0.8231481481481482 0.8092592592592592 0.7916666666666666 0.7842592592592592 0.7805555555555556 0.7768518518518519 0.7740740740740741 0.7731481481481481 0.7731481481481481 0.7731481481481481 0.7731481481481481 0.7731481481481481 0.7731481481481481 0.7731481481481481 0.7731481481481481 0.7731481481481481 0.7731481481481481 0.7731481481481481 0.7731481481481481 0.7731481481481481 0.7666666666666666 0.7537037037037038 0.712962962962963 0.675 0.6453703703703704 0.6175925925925926 0.6018518518518519 0.5888888888888889 0.5787037037037037 0.5740740740740741 0.5731481481481482 0.5731481481481482 0.5712962962962963 0.5703703703703704 0.5675925925925926 0.5648148148148149 0.5546296296296296 0.5203703703703704 0.4601851851851851 0.3712962962962964 0.32592592592592595 0.30000000000000004 0.27407407407407397 0.2611111111111111 0.25370370370370365 0.25370370370370365 0.25370370370370365 0.2518518518518519 0.24537037037037035 0.2342592592592593 0.2324074074074074 0.2314814814814815 0.2287037037037037 0.22129629629629632 0.2083333333333333 0.19166666666666665 0.1898148148148148 0.2148148148148148 0.24629629629629635 0.2361111111111112 0.2222222222222222 0.22129629629629632 0.2231481481481481 0.225925925925926 0.225925925925926 0.225925925925926 0.225925925925926 0.225 0.2203703703703704 0.20277777777777767 0.1777777777777778 0.14722222222222225 0.11388888888888893 0.10277777777777776 0.10277777777777776 0.1074074074074074 0.11759259259259258 0.12777777777777774 0.13611111111111107 0.13611111111111107 0.13611111111111107 0.13611111111111107 0.13703703703703707 0.13796296296296295 0.14074074074074072 0.14074074074074072 0.13888888888888884 0.13796296296296295 0.13703703703703707 0.13888888888888884 0.13888888888888884 0.13703703703703707 0.13240740740740742 0.12870370370370365 0.12777777777777774 0.125 0.11944444444444445 0.1166666666666667 0.1148148148148148 0.1148148148148148 0.11759259259259258 0.12222222222222225 0.12685185185185188 0.13240740740740742 0.13796296296296295 0.13796296296296295 0.13888888888888884,66.70000000001164 86.70000000001164 106.70000000001164 126.70000000001164 146.7000000000116 166.7000000000116 186.70000000001164 206.70000000001164 226.70000000001164 246.70000000001164 266.70000000001164 286.70000000001164 306.70000000001164 326.70000000001164 346.7000000000116 366.7000000000117 386.7000000000117 406.7000000000117 426.7000000000117 446.7000000000117 466.7000000000117 486.7000000000117 506.7000000000117 526.7000000000116 546.7000000000116 566.7000000000116 586.7000000000116 606.7000000000116 626.7000000000116 646.7000000000116 666.7000000000116 686.7000000000116 706.7000000000116 726.7000000000116 746.7000000000116 766.7000000000116 786.7000000000116 806.7000000000116 826.7000000000116 846.7000000000116 866.7000000000116 886.7000000000116 906.7000000000116 926.7000000000116 946.7000000000116 966.7000000000116 986.7000000000116 1006.7000000000116 1026.7000000000116 1046.7000000000116 1066.7000000000116 1086.7000000000116 1106.7000000000116 1126.7000000000114 1146.7000000000114 1166.7000000000114 1186.7000000000114 1206.7000000000114 1226.7000000000114 1246.7000000000114 1266.7000000000114 1286.7000000000114 1306.7000000000114 1326.7000000000114 1346.7000000000114 1366.7000000000114 1386.7000000000116 1406.7000000000116 1426.7000000000116 1446.7000000000116 1466.7000000000116 1486.7000000000116 1506.7000000000116 1526.7000000000116 1546.7000000000116 1566.7000000000116 1586.7000000000116 1606.7000000000116 1626.7000000000116 1646.7000000000116 1666.7000000000116 1686.7000000000116 1706.7000000000116 1726.7000000000116 1746.7000000000116 1766.7000000000116 1786.7000000000116 1806.7000000000119 1826.7000000000119 1846.7000000000119 1866.7000000000119 1886.7000000000119 1906.7000000000119 1926.7000000000119 1946.7000000000119 1966.7000000000119 1986.7000000000119 2006.7000000000119 2026.7000000000119 2046.7000000000119 2066.700000000012 2086.700000000012 2106.700000000012 2126.700000000012 2146.700000000012 2166.700000000012 2186.700000000012 2206.700000000012 2226.700000000012 2246.700000000012 2266.700000000012 2286.700000000012 2306.700000000012 2326.700000000012 2346.700000000012 2366.700000000012 2386.700000000012 2406.700000000012 2426.700000000012 2446.700000000012 2466.700000000012 2486.700000000012 2506.700000000012 2526.700000000012 2546.700000000012 2566.700000000012
cb_03,3.0,enc_trial,stim,response,Miami trip,1797.0000000357684,enc_trial,1.0,3.0,t_s_02_1,travel_shared,fold-b,water bottle,3.0,competing,close,paired,t_s_02_1.jpg,,travel-b1,Iceland trip,Miami trip,sub-28,0.0,0.0,1.0,1.0,0.4951388888888889 0.4944444444444445 0.4923611111111112 0.4902777777777778 0.4861111111111111 0.4819444444444445 0.4743055555555555 0.4597222222222222 0.45 0.4423611111111111 0.4256944444444444 0.39375 0.3645833333333333 0.34097222222222223 0.3111111111111111 0.2770833333333333 0.2361111111111111 0.1993055555555556 0.19166666666666668 0.1909722222222222 0.1909722222222222 0.1909722222222222 0.1840277777777778 0.17430555555555555 0.1638888888888889 0.16111111111111112 0.16041666666666668 0.16041666666666668 0.1597222222222222 0.15902777777777774 0.15833333333333333 0.15833333333333333 0.17708333333333334 0.26319444444444445 0.4625 0.5798611111111112 0.6333333333333333 0.6388888888888888 0.6388888888888888 0.6388888888888888 0.64375 0.6541666666666667 0.6576388888888889 0.6625 0.6965277777777777 0.7375 0.7805555555555556 0.8166666666666667 0.8236111111111111 0.8243055555555555 0.825 0.8263888888888888 0.8305555555555556 0.8361111111111111 0.8381944444444445,0.8296296296296296 0.8101851851851851 0.787037037037037 0.7648148148148148 0.7222222222222222 0.6888888888888889 0.6481481481481481 0.5805555555555555 0.5037037037037038 0.4296296296296296 0.3648148148148148 0.31666666666666665 0.29074074074074074 0.27407407407407397 0.2657407407407407 0.2601851851851852 0.25 0.225 0.21203703703703705 0.21111111111111114 0.21111111111111114 0.21111111111111114 0.20277777777777767 0.18611111111111112 0.1611111111111111 0.15462962962962967 0.15462962962962967 0.15462962962962967 0.15370370370370368 0.1518518518518519 0.1509259259259259 0.1509259259259259 0.14814814814814814 0.13888888888888884 0.11851851851851848 0.11759259259259258 0.11851851851851848 0.11851851851851848 0.11851851851851848 0.11944444444444445 0.12407407407407413 0.12870370370370365 0.13240740740740742 0.13703703703703707 0.14074074074074072 0.13611111111111107 0.13240740740740742 0.13240740740740742 0.1351851851851852 0.13611111111111107 0.13703703703703707 0.13703703703703707 0.14074074074074072 0.1425925925925926 0.1435185185185185,721.9000000000087 741.9000000000087 761.9000000000087 781.9000000000087 801.9000000000087 821.9000000000087 841.9000000000087 861.9000000000087 881.9000000000087 901.9000000000087 921.9000000000087 941.9000000000087 961.9000000000087 981.9000000000087 1001.9000000000087 1021.9000000000087 1041.9000000000087 1061.9000000000087 1081.9000000000087 1101.9000000000087 1121.9000000000087 1141.9000000000087 1161.9000000000087 1181.9000000000087 1201.9000000000087 1221.9000000000087 1241.9000000000087 1261.9000000000087 1281.9000000000087 1301.9000000000087 1321.9000000000087 1341.9000000000087 1361.9000000000087 1381.900000000009 1401.900000000009 1421.900000000009 1441.900000000009 1461.900000000009 1481.900000000009 1501.900000000009 1521.900000000009 1541.900000000009 1561.900000000009 1581.900000000009 1601.900000000009 1621.900000000009 1641.900000000009 1661.900000000009 1681.900000000009 1701.900000000009 1721.900000000009 1741.900000000009 1761.900000000009 1781.900000000009 1801.900000000009
cb_03,4.0,enc_trial,stim,response,Iceland trip,1449.6000000000058,enc_trial,1.0,4.0,t_i_15_1,travel_Iceland,fold-a,compass,3.0,unique,far,paired,t_i_15_1.jpg,Iceland,travel-b1,Iceland trip,Miami trip,sub-28,1.0,1.0,1.0,1.0,0.5006944444444444 0.5006944444444444 0.4972222222222222 0.4895833333333333 0.475 0.4715277777777778 0.4701388888888889 0.4694444444444445 0.4701388888888889 0.4715277777777778 0.4736111111111111 0.4777777777777778 0.4777777777777778 0.4784722222222222 0.4784722222222222 0.4784722222222222 0.4784722222222222 0.4784722222222222 0.4784722222222222 0.4784722222222222 0.4784722222222222 0.4784722222222222 0.4736111111111111 0.4638888888888889 0.4270833333333333 0.38125 0.3284722222222222 0.27291666666666664 0.2611111111111111 0.2611111111111111 0.2611111111111111 0.25972222222222224 0.25416666666666665 0.2534722222222222 0.25069444444444444 0.2465277777777778 0.2270833333333333 0.18055555555555555 0.1284722222222222 0.12083333333333332 0.12083333333333332 0.12083333333333332 0.12083333333333332 0.12152777777777778,0.8268518518518518 0.825925925925926 0.7953703703703704 0.7453703703703703 0.6944444444444444 0.6805555555555556 0.6731481481481482 0.6648148148148147 0.6518518518518519 0.6351851851851852 0.6148148148148148 0.5935185185185186 0.587962962962963 0.5851851851851853 0.5824074074074075 0.5824074074074075 0.5824074074074075 0.5824074074074075 0.5824074074074075 0.5824074074074075 0.5824074074074075 0.5824074074074075 0.5768518518518518 0.5638888888888889 0.4916666666666667 0.3824074074074074 0.2731481481481481 0.18333333333333326 0.1703703703703704 0.1703703703703704 0.1703703703703704 0.1703703703703704 0.1703703703703704 0.1703703703703704 0.1703703703703704 0.17129629629629628 0.17314814814814816 0.17222222222222228 0.1601851851851852 0.15462962962962967 0.15462962962962967 0.15462962962962967 0.15462962962962967 0.15462962962962967,558.0 578.0 598.0 618.0 638.0 658.0 678.0 698.0 718.0 738.0 758.0 778.0 798.0 818.0 838.0 858.0 878.0 898.0 918.0 938.0 958.0 978.0 998.0 1018.0 1038.0 1058.0 1078.0 1098.0 1118.0 1138.0 1158.0 1178.0 1198.0 1218.0 1238.0 1258.0 1278.0 1298.0 1318.0 1338.0 1358.0 1378.0 1398.0 1418.0
cb_03,5.0,enc_trial,stim,response,Miami trip,1163.2000000119149,enc_trial,1.0,5.0,t_s_23_1,travel_shared,fold-c,ball cap,3.0,competing,far,paired,t_s_23_1.jpg,,travel-b1,Iceland trip,Miami trip,sub-28,1.0,1.0,1.0,0.0,0.4944444444444445 0.4944444444444445 0.4944444444444445 0.4944444444444445 0.4944444444444445 0.4944444444444445 0.4944444444444445 0.4944444444444445 0.4944444444444445 0.4944444444444445 0.4944444444444445 0.4944444444444445 0.4944444444444445 0.4944444444444445 0.4944444444444445 0.4944444444444445 0.4944444444444445 0.4944444444444445 0.4944444444444445 0.4944444444444445 0.4944444444444445 0.4944444444444445 0.4944444444444445 0.4944444444444445 0.4944444444444445 0.4944444444444445 0.4944444444444445 0.4944444444444445 0.4944444444444445 0.4944444444444445 0.4944444444444445 0.4965277777777778 0.5215277777777778 0.5729166666666666 0.6618055555555555 0.7041666666666667 0.7298611111111111 0.75 0.75625 0.7569444444444444 0.7569444444444444 0.7569444444444444 0.7618055555555555 0.7729166666666667 0.7965277777777777 0.8013888888888889 0.8027777777777778 0.8034722222222223 0.8125 0.8236111111111111 0.8305555555555556 0.8319444444444445 0.8319444444444445 0.8326388888888889,0.8268518518518518 0.8268518518518518 0.8268518518518518 0.8268518518518518 0.8268518518518518 0.8268518518518518 0.8268518518518518 0.8268518518518518 0.8268518518518518 0.8268518518518518 0.8268518518518518 0.8268518518518518 0.8268518518518518 0.8268518518518518 0.8268518518518518 0.8268518518518518 0.8268518518518518 0.8268518518518518 0.8268518518518518 0.8268518518518518 0.8268518518518518 0.8268518518518518 0.8268518518518518 0.8268518518518518 0.8268518518518518 0.8268518518518518 0.8268518518518518 0.8268518518518518 0.8268518518518518 0.8268518518518518 0.8268518518518518 0.8138888888888889 0.7277777777777779 0.6046296296296296 0.4268518518518518 0.35092592592592603 0.312037037037037 0.28240740740740744 0.27407407407407397 0.27407407407407397 0.27407407407407397 0.27407407407407397 0.275 0.27129629629629626 0.2490740740740741 0.2444444444444445 0.2435185185185185 0.2361111111111112 0.20925925925925928 0.18703703703703692 0.17500000000000004 0.17222222222222228 0.17222222222222228 0.17222222222222228,66.69999999999709 86.6999999999971 106.69999999999708 126.69999999999708 146.6999999999971 166.6999999999971 186.6999999999971 206.6999999999971 226.6999999999971 246.6999999999971 266.6999999999971 286.69999999999715 306.69999999999715 326.69999999999715 346.6999999999971 366.6999999999971 386.6999999999971 406.6999999999971 426.6999999999971 446.6999999999971 466.6999999999971 486.6999999999971 506.6999999999971 526.6999999999971 546.6999999999971 566.6999999999971 586.6999999999971 606.6999999999971 626.6999999999971 646.6999999999971 666.6999999999971 686.6999999999971 706.6999999999971 726.6999999999971 746.6999999999971 766.6999999999971 786.6999999999971 806.6999999999971 826.6999999999971 846.6999999999971 866.6999999999971 886.6999999999971 906.6999999999972 926.6999999999972 946.6999999999972 966.6999999999972 986.6999999999972 1006.6999999999972 1026.6999999999969 1046.6999999999969 1066.6999999999969 1086.6999999999969 1106.6999999999969 1126.6999999999969
cb_03,6.0,enc_trial,stim,response,Miami trip,1425.3000000000034,enc_trial,1.0,6.0,t_s_04_2,travel_shared,fold-c,instant camera,3.0,competing,far,paired,t_s_04_2.jpg,,travel-b1,Iceland trip,Miami trip,sub-28,1.0,1.0,1.0,1.0,0.4979166666666667 0.4979166666666667 0.4979166666666667 0.4979166666666667 0.4979166666666667 0.4979166666666667 0.4979166666666667 0.4979166666666667 0.4979166666666667 0.4979166666666667 0.4979166666666667 0.4979166666666667 0.4979166666666667 0.4979166666666667 0.4979166666666667 0.4979166666666667 0.4979166666666667 0.4979166666666667 0.4979166666666667 0.4979166666666667 0.4979166666666667 0.4979166666666667 0.4979166666666667 0.4979166666666667 0.4979166666666667 0.4979166666666667 0.4979166666666667 0.4979166666666667 0.4979166666666667 0.4979166666666667 0.4979166666666667 0.4979166666666667 0.5020833333333333 0.5166666666666667 0.5618055555555556 0.6048611111111111 0.6444444444444445 0.6784722222222223 0.7229166666666667 0.7618055555555555 0.7916666666666666 0.7958333333333333 0.7958333333333333 0.7958333333333333 0.7972222222222223 0.7986111111111112 0.8013888888888889 0.8069444444444445 0.8284722222222223 0.8402777777777778 0.8486111111111111 0.8569444444444444 0.8597222222222223 0.8604166666666667,0.8305555555555555 0.8305555555555555 0.8305555555555555 0.8305555555555555 0.8305555555555555 0.8305555555555555 0.8305555555555555 0.8305555555555555 0.8305555555555555 0.8305555555555555 0.8305555555555555 0.8305555555555555 0.8305555555555555 0.8305555555555555 0.8305555555555555 0.8305555555555555 0.8305555555555555 0.8305555555555555 0.8305555555555555 0.8305555555555555 0.8305555555555555 0.8305555555555555 0.8305555555555555 0.8305555555555555 0.8305555555555555 0.8305555555555555 0.8305555555555555 0.8305555555555555 0.8305555555555555 0.8305555555555555 0.8305555555555555 0.8305555555555555 0.7925925925925926 0.7231481481481481 0.5935185185185186 0.4972222222222222 0.4194444444444444 0.3574074074074074 0.28148148148148144 0.2296296296296297 0.19351851851851853 0.19166666666666665 0.19166666666666665 0.19166666666666665 0.19166666666666665 0.19166666666666665 0.1898148148148148 0.1777777777777778 0.1527777777777778 0.1444444444444445 0.13796296296296295 0.13148148148148153 0.12962962962962965 0.12962962962962965,218.3000000000029 238.3000000000029 258.3000000000029 278.3000000000029 298.30000000000285 318.30000000000285 338.30000000000285 358.3000000000029 378.3000000000029 398.3000000000029 418.3000000000029 438.3000000000029 458.3000000000029 478.3000000000029 498.3000000000029 518.3000000000029 538.3000000000029 558.3000000000029 578.3000000000029 598.3000000000029 618.3000000000029 638.3000000000029 658.3000000000029 678.3000000000029 698.3000000000029 718.3000000000029 738.3000000000029 758.3000000000029 778.3000000000029 798.3000000000029 818.3000000000029 838.3000000000029 858.3000000000029 878.3000000000029 898.3000000000029 918.3000000000028 938.3000000000028 958.3000000000028 978.3000000000028 998.3000000000028 1018.3000000000028 1038.3000000000031 1058.3000000000031 1078.3000000000031 1098.3000000000031 1118.3000000000031 1138.3000000000031 1158.3000000000031 1178.3000000000031 1198.3000000000031 1218.3000000000031 1238.3000000000031 1258.3000000000031 1278.3000000000031
cb_03,7.0,enc_trial,stim,response,Iceland trip,2179.199999988079,enc_trial,1.0,7.0,t_m_04_1,travel_Miami,fold-e,UV jacket,3.0,unique,close,paired,t_m_04_1.jpg,Miami,travel-b1,Iceland trip,Miami trip,sub-28,1.0,1.0,0.0,1.0,0.5 0.5 0.5 0.5 0.5 0.5 0.5 0.5 0.5 0.5 0.5 0.5 0.5 0.5 0.5 0.5 0.5 0.5 0.5 0.5 0.5 0.5 0.5 0.5 0.5 0.5 0.5 0.5 0.5 0.5 0.5 0.5 0.5 0.5 0.5 0.5 0.5 0.5013888888888889 0.5486111111111112 0.6305555555555555 0.7055555555555556 0.7763888888888889 0.7972222222222223 0.7979166666666667 0.7965277777777777 0.7951388888888888 0.7930555555555555 0.7895833333333333 0.7868055555555555 0.7909722222222222 0.7986111111111112 0.8069444444444445 0.81875 0.8368055555555556 0.8590277777777777 0.8652777777777778 0.8666666666666667 0.8673611111111111 0.8673611111111111 0.8673611111111111 0.8673611111111111 0.8673611111111111 0.8673611111111111 0.8673611111111111 0.8673611111111111 0.8673611111111111 0.8666666666666667 0.8666666666666667 0.8666666666666667 0.8666666666666667 0.8666666666666667 0.8666666666666667 0.8666666666666667 0.8666666666666667 0.8666666666666667 0.8666666666666667 0.8666666666666667 0.8666666666666667 0.8284722222222223 0.7076388888888889 0.5284722222222222 0.3597222222222222 0.31319444444444444 0.3090277777777778 0.30972222222222223 0.27152777777777776 0.2263888888888889 0.20416666666666666 0.20347222222222225 0.20347222222222225 0.20069444444444445 0.14791666666666667 0.10833333333333334 0.10069444444444443,0.8296296296296296 0.8296296296296296 0.8296296296296296 0.8296296296296296 0.8296296296296296 0.8296296296296296 0.8296296296296296 0.8296296296296296 0.8296296296296296 0.8296296296296296 0.8296296296296296 0.8296296296296296 0.8296296296296296 0.8296296296296296 0.8296296296296296 0.8296296296296296 0.8296296296296296 0.8296296296296296 0.8296296296296296 0.8296296296296296 0.8296296296296296 0.8296296296296296 0.8296296296296296 0.8296296296296296 0.8296296296296296 0.8296296296296296 0.8296296296296296 0.8296296296296296 0.8296296296296296 0.8296296296296296 0.8296296296296296 0.8296296296296296 0.8296296296296296 0.8296296296296296 0.8296296296296296 0.8296296296296296 0.8296296296296296 0.8268518518518518 0.7175925925925926 0.5203703703703704 0.33518518518518514 0.18703703703703692 0.15648148148148144 0.1527777777777778 0.1527777777777778 0.15555555555555556 0.15740740740740744 0.16296296296296298 0.1694444444444444 0.17407407407407405 0.1787037037037037 0.18148148148148147 0.1805555555555556 0.17222222222222228 0.15462962962962967 0.14907407407407405 0.14722222222222225 0.14722222222222225 0.14722222222222225 0.14722222222222225 0.14722222222222225 0.14722222222222225 0.14722222222222225 0.14722222222222225 0.14814814814814814 0.14814814814814814 0.14814814814814814 0.14814814814814814 0.14814814814814814 0.14814814814814814 0.14814814814814814 0.14814814814814814 0.14814814814814814 0.14814814814814814 0.14814814814814814 0.14814814814814814 0.14814814814814814 0.14814814814814814 0.14907407407407405 0.15833333333333333 0.16574074074074074 0.1518518518518519 0.14907407407407405 0.14907407407407405 0.14907407407407405 0.15000000000000002 0.14629629629629626 0.13888888888888884 0.13796296296296295 0.13796296296296295 0.13796296296296295 0.13148148148148153 0.12314814814814813 0.12037037037037035,297.3000000000028 317.3000000000028 337.3000000000028 357.3000000000028 377.3000000000028 397.3000000000028 417.3000000000028 437.3000000000028 457.3000000000028 477.3000000000028 497.3000000000028 517.3000000000028 537.3000000000028 557.3000000000028 577.3000000000028 597.3000000000028 617.3000000000028 637.3000000000028 657.3000000000028 677.3000000000028 697.3000000000028 717.3000000000028 737.3000000000028 757.3000000000028 777.3000000000028 797.3000000000028 817.3000000000028 837.3000000000028 857.3000000000028 877.3000000000028 897.3000000000028 917.3000000000028 937.3000000000028 957.3000000000028 977.3000000000028 997.3000000000028 1017.3000000000028 1037.3000000000031 1057.3000000000031 1077.3000000000031 1097.3000000000031 1117.3000000000031 1137.3000000000031 1157.3000000000031 1177.3000000000031 1197.3000000000031 1217.3000000000031 1237.3000000000031 1257.3000000000031 1277.3000000000031 1297.3000000000031 1317.3000000000031 1337.3000000000031 1357.3000000000031 1377.3000000000031 1397.3000000000031 1417.3000000000031 1437.3000000000031 1457.3000000000031 1477.3000000000031 1497.3000000000031 1517.3000000000031 1537.3000000000031 1557.3000000000031 1577.3000000000031 1597.3000000000031 1617.3000000000031 1637.3000000000031 1657.3000000000031 1677.3000000000031 1697.3000000000031 1717.3000000000031 1737.3000000000031 1757.3000000000031 1777.3000000000031 1797.3000000000031 1817.3000000000031 1837.3000000000031 1857.3000000000031 1877.3000000000031 1897.3000000000031 1917.3000000000031 1937.3000000000031 1957.3000000000031 1977.3000000000031 1997.3000000000031 2017.3000000000031 2037.3000000000031 2057.300000000003 2077.300000000003 2097.300000000003 2117.300000000003 2137.300000000003 2157.300000000003
cb_03,8.0,enc_trial,stim,response,Iceland trip,1133.4000000238448,enc_trial,1.0,8.0,t_i_19_1,travel_Iceland,fold-b-single,rope,3.0,unique,,single,t_i_19_1.jpg,Iceland,travel-b1,Iceland trip,Miami trip,sub-28,1.0,,1.0,,0.5006944444444444 0.4902777777777778 0.4638888888888889 0.4326388888888889 0.3840277777777778 0.3472222222222222 0.3215277777777778 0.2965277777777778 0.2798611111111111 0.2722222222222222 0.2625 0.2479166666666667 0.23680555555555555 0.22291666666666668 0.21180555555555555 0.21180555555555555 0.20902777777777776 0.1951388888888889 0.17569444444444446 0.14791666666666667 0.12708333333333333 0.12430555555555554,0.8388888888888889 0.8092592592592592 0.7527777777777778 0.6777777777777778 0.575 0.4879629629629629 0.4305555555555556 0.38703703703703707 0.3629629629629629 0.3453703703703703 0.3277777777777777 0.3046296296296296 0.2925925925925926 0.2796296296296297 0.25370370370370365 0.2314814814814815 0.21111111111111114 0.18240740740740746 0.17129629629629628 0.1620370370370371 0.15000000000000002 0.14722222222222225,679.4000000000087 699.4000000000087 719.4000000000087 739.4000000000087 759.4000000000087 779.4000000000087 799.4000000000087 819.4000000000087 839.4000000000087 859.4000000000087 879.4000000000087 899.4000000000087 919.4000000000087 939.4000000000087 959.4000000000087 979.4000000000087 999.4000000000087 1019.4000000000087 1039.4000000000087 1059.4000000000087 1079.4000000000087 1099.4000000000087
cb_03,9.0,enc_trial,stim,response,Miami trip,1039.100000023842,enc_trial,1.0,9.0,t_s_11_1,travel_shared,fold-a-single,eye mask,3.0,competing,,single,t_s_11_1.jpg,,travel-b1,Iceland trip,Miami trip,sub-28,1.0,,1.0,,0.50625 0.5006944444444444 0.4979166666666667 0.4965277777777778 0.4930555555555556 0.4902777777777778 0.4888888888888889 0.4847222222222222 0.4791666666666667 0.4701388888888889 0.4652777777777778 0.4798611111111111 0.5333333333333333 0.6243055555555556 0.775 0.84375 0.875 0.8756944444444444 0.8736111111111111 0.8722222222222222 0.8722222222222222 0.8722222222222222 0.8722222222222222 0.8722222222222222 0.8708333333333333 0.8701388888888889 0.8694444444444445 0.8694444444444445 0.8694444444444445 0.8694444444444445,0.8287037037037037 0.8231481481481482 0.8203703703703704 0.8194444444444444 0.8157407407407408 0.8148148148148149 0.812962962962963 0.8101851851851851 0.8046296296296296 0.7833333333333333 0.7398148148148148 0.6333333333333333 0.4981481481481481 0.3592592592592593 0.2277777777777777 0.18703703703703692 0.17222222222222228 0.17129629629629628 0.17222222222222228 0.17314814814814816 0.17314814814814816 0.17314814814814816 0.17314814814814816 0.17314814814814816 0.17222222222222228 0.16666666666666666 0.15370370370370368 0.14166666666666672 0.13888888888888884 0.13796296296296295,467.0 487.0 507.0 527.0 547.0 567.0 587.0 607.0 627.0 647.0 667.0 687.0 707.0 727.0 747.0 767.0 787.0 807.0 827.0 847.0 867.0 887.0 907.0 927.0 947.0 967.0 987.0 1007.0 1027.0 1047.0
cb_03,10.0,enc_trial,stim,response,Miami trip,1516.9000000238445,enc_trial,1.0,10.0,t_s_02_2,travel_shared,fold-b,water bottle,3.0,competing,close,paired,t_s_02_2.jpg,,travel-b1,Iceland trip,Miami trip,sub-28,0.0,0.0,1.0,1.0,0.4944444444444445 0.4951388888888889 0.4965277777777778 0.4972222222222222 0.4972222222222222 0.4972222222222222 0.4972222222222222 0.4972222222222222 0.5 0.5194444444444445 0.5555555555555556 0.6166666666666667 0.6701388888888888 0.7354166666666667 0.8055555555555556 0.83125 0.8340277777777778 0.8347222222222223 0.8347222222222223 0.8347222222222223 0.8354166666666667 0.8381944444444445 0.8416666666666667 0.85 0.8729166666666667 0.8826388888888889 0.8833333333333333 0.8833333333333333 0.8833333333333333 0.8833333333333333 0.8833333333333333 0.8833333333333333 0.8833333333333333 0.8833333333333333 0.8833333333333333 0.8833333333333333 0.8833333333333333 0.8826388888888889,0.8388888888888889 0.8435185185185186 0.8509259259259259 0.8527777777777777 0.8546296296296296 0.8546296296296296 0.8546296296296296 0.8546296296296296 0.8490740740740741 0.8055555555555556 0.7277777777777779 0.6046296296296296 0.5074074074074074 0.4037037037037037 0.2935185185185185 0.24537037037037035 0.2314814814814815 0.21851851851851856 0.2148148148148148 0.2138888888888889 0.21018518518518514 0.1972222222222222 0.18518518518518529 0.16296296296296298 0.11851851851851848 0.10555555555555553 0.10462962962962964 0.10462962962962964 0.10462962962962964 0.10462962962962964 0.10462962962962964 0.10462962962962964 0.10462962962962964 0.10462962962962964 0.10462962962962964 0.10555555555555553 0.10555555555555553 0.10555555555555553,758.1999999999971 778.1999999999971 798.1999999999971 818.1999999999971 838.1999999999971 858.1999999999971 878.1999999999971 898.1999999999971 918.1999999999972 938.1999999999972 958.1999999999972 978.1999999999972 998.1999999999972 1018.1999999999972 1038.1999999999969 1058.1999999999969 1078.1999999999969 1098.1999999999969 1118.1999999999969 1138.1999999999969 1158.1999999999969 1178.1999999999969 1198.1999999999969 1218.1999999999969 1238.1999999999969 1258.1999999999969 1278.1999999999969 1298.1999999999969 1318.1999999999969 1338.1999999999969 1358.1999999999969 1378.1999999999969 1398.1999999999969 1418.1999999999969 1438.1999999999969 1458.1999999999969 1478.1999999999969 1498.1999999999969
cb_03,11.0,enc_trial,stim,response,Miami trip,1052.4000000238302,enc_trial,1.0,11.0,t_m_20_1,travel_Miami,fold-e,inflatable beachball,3.0,unique,close,paired,t_m_20_1.jpg,Miami,travel-b1,Iceland trip,Miami trip,sub-28,1.0,1.0,1.0,1.0,0.5041666666666667 0.5631944444444444 0.6368055555555555 0.6958333333333333 0.7291666666666666 0.7361111111111112 0.7395833333333334 0.7451388888888889 0.7541666666666667 0.7604166666666666 0.7604166666666666 0.7631944444444444 0.7715277777777778 0.7854166666666667 0.7993055555555556 0.7993055555555556 0.8 0.8069444444444445 0.8145833333333333 0.8180555555555555 0.8180555555555555 0.81875,0.825 0.7472222222222222 0.6388888888888888 0.5398148148148147 0.4583333333333334 0.4175925925925926 0.3787037037037037 0.3231481481481482 0.28148148148148144 0.2583333333333333 0.25462962962962965 0.2416666666666667 0.2148148148148148 0.18333333333333326 0.1611111111111111 0.1601851851851852 0.1620370370370371 0.16481481481481486 0.16481481481481486 0.16388888888888886 0.16388888888888886 0.16388888888888886,630.7999999999884 650.7999999999884 670.7999999999884 690.7999999999884 710.7999999999884 730.7999999999884 750.7999999999884 770.7999999999884 790.7999999999884 810.7999999999884 830.7999999999884 850.7999999999884 870.7999999999884 890.7999999999884 910.7999999999884 930.7999999999884 950.7999999999884 970.7999999999884 990.7999999999884 1010.7999999999884 1030.7999999999884 1050.7999999999884
cb_03,12.0,enc_trial,stim,response,Miami trip,1066.300000035757,enc_trial,1.0,12.0,t_m_01_1,travel_Miami,fold-a,sandals,3.0,unique,far,paired,t_m_01_1.jpg,Miami,travel-b1,Iceland trip,Miami trip,sub-28,1.0,1.0,1.0,1.0,0.4965277777777778 0.5076388888888889 0.5416666666666666 0.5916666666666667 0.6611111111111111 0.7111111111111111 0.7777777777777778 0.8555555555555555 0.8784722222222222 0.8791666666666667 0.8791666666666667 0.8791666666666667 0.8791666666666667 0.8729166666666667 0.8659722222222223 0.8631944444444445 0.8611111111111112 0.8597222222222223 0.8590277777777777 0.8583333333333333,0.8351851851851853 0.8083333333333333 0.7444444444444445 0.6601851851851852 0.5231481481481481 0.4055555555555556 0.2620370370370371 0.12962962962962965 0.09629629629629632 0.09537037037037033 0.09537037037037033 0.09537037037037033 0.09629629629629632 0.11388888888888893 0.13240740740740742 0.14074074074074072 0.15370370370370368 0.16759259259259265 0.17500000000000004 0.17685185185185182,630.7999999999884 650.7999999999884 670.7999999999884 690.7999999999884 710.7999999999884 730.7999999999884 750.7999999999884 770.7999999999884 790.7999999999884 810.7999999999884 830.7999999999884 850.7999999999884 870.7999999999884 890.7999999999884 910.7999999999884 930.7999999999884 950.7999999999884 970.7999999999884 990.7999999999884 1010.7999999999884
cb_03,13.0,enc_trial,stim,response,Iceland trip,2529.3999999999937,enc_trial,1.0,13.0,t_m_04_2,travel_Miami,fold-e,UV jacket,3.0,unique,close,paired,t_m_04_2.jpg,Miami,travel-b1,Iceland trip,Miami trip,sub-28,1.0,1.0,0.0,1.0,0.5013888888888889 0.5055555555555555 0.5222222222222223 0.5569444444444445 0.6284722222222222 0.6763888888888889 0.7243055555555555 0.7736111111111111 0.7958333333333333 0.8236111111111111 0.8430555555555556 0.85 0.85 0.84375 0.8138888888888889 0.7861111111111111 0.7472222222222222 0.65 0.5263888888888889 0.3756944444444445 0.26805555555555555 0.21041666666666667 0.2111111111111111 0.2152777777777778 0.2180555555555556 0.2180555555555556 0.21875 0.22083333333333333 0.22083333333333333 0.21944444444444444 0.21041666666666667 0.18055555555555555 0.15694444444444444 0.14375 0.14166666666666666 0.14166666666666666 0.14166666666666666 0.14166666666666666 0.14166666666666666 0.14166666666666666 0.14166666666666666 0.14166666666666666 0.14166666666666666 0.14166666666666666 0.14166666666666666 0.14166666666666666 0.1423611111111111 0.1423611111111111 0.1423611111111111 0.1423611111111111 0.1527777777777778 0.2645833333333333 0.39652777777777776 0.5229166666666667 0.6020833333333333 0.6048611111111111 0.6048611111111111 0.6020833333333333 0.5965277777777778 0.5666666666666667 0.4743055555555555 0.325 0.24375 0.17916666666666667 0.09722222222222222 0.04513888888888889 0.034027777777777775 0.034027777777777775 0.034722222222222224 0.034722222222222224 0.034722222222222224 0.034722222222222224 0.035416666666666666 0.03888888888888889 0.05486111111111111 0.10625 0.13333333333333333 0.14166666666666666 0.14305555555555555,0.8277777777777777 0.8101851851851851 0.7583333333333333 0.6648148148148147 0.4972222222222222 0.3944444444444445 0.2935185185185185 0.18796296296296305 0.13888888888888884 0.0907407407407408 0.06851851851851852 0.06111111111111112 0.06111111111111112 0.06759259259259254 0.0805555555555556 0.08240740740740737 0.08148148148148149 0.0805555555555556 0.0907407407407408 0.09537037037037033 0.08240740740740737 0.07592592592592595 0.08148148148148149 0.08703703703703702 0.09444444444444444 0.09537037037037033 0.09907407407407408 0.10462962962962964 0.1074074074074074 0.11388888888888893 0.12222222222222225 0.12407407407407413 0.12314814814814813 0.12314814814814813 0.12407407407407413 0.12407407407407413 0.12407407407407413 0.12407407407407413 0.12407407407407413 0.12407407407407413 0.12407407407407413 0.12407407407407413 0.12407407407407413 0.12407407407407413 0.12407407407407413 0.12407407407407413 0.12407407407407413 0.12407407407407413 0.12407407407407413 0.12407407407407413 0.12222222222222225 0.09444444444444444 0.08333333333333337 0.08148148148148149 0.08611111111111114 0.0888888888888889 0.0888888888888889 0.09537037037037033 0.10925925925925928 0.12962962962962965 0.16296296296296298 0.17314814814814816 0.1620370370370371 0.1592592592592592 0.15833333333333333 0.15000000000000002 0.14166666666666672 0.14166666666666672 0.14166666666666672 0.14166666666666672 0.14166666666666672 0.14166666666666672 0.14166666666666672 0.1444444444444445 0.1444444444444445 0.13981481481481484 0.13796296296296295 0.13888888888888884 0.13981481481481484,958.2999999999884 978.2999999999884 998.2999999999884 1018.2999999999884 1038.2999999999884 1058.2999999999884 1078.2999999999884 1098.2999999999884 1118.2999999999884 1138.2999999999886 1158.2999999999886 1178.2999999999886 1198.2999999999886 1218.2999999999886 1238.2999999999886 1258.2999999999886 1278.2999999999886 1298.2999999999886 1318.2999999999886 1338.2999999999886 1358.2999999999886 1378.2999999999884 1398.2999999999884 1418.2999999999884 1438.2999999999884 1458.2999999999884 1478.2999999999884 1498.2999999999884 1518.2999999999884 1538.2999999999884 1558.2999999999884 1578.2999999999884 1598.2999999999884 1618.2999999999884 1638.2999999999884 1658.2999999999884 1678.2999999999884 1698.2999999999884 1718.2999999999884 1738.2999999999884 1758.2999999999884 1778.2999999999884 1798.2999999999884 1818.2999999999884 1838.2999999999884 1858.2999999999884 1878.2999999999884 1898.2999999999884 1918.2999999999884 1938.2999999999884 1958.2999999999884 1978.2999999999884 1998.2999999999884 2018.2999999999884 2038.2999999999884 2058.2999999999884 2078.2999999999884 2098.2999999999884 2118.2999999999884 2138.2999999999884 2158.2999999999884 2178.2999999999884 2198.2999999999884 2218.2999999999884 2238.2999999999884 2258.2999999999884 2278.2999999999884 2298.2999999999884 2318.2999999999884 2338.2999999999884 2358.2999999999884 2378.2999999999884 2398.2999999999884 2418.2999999999884 2438.2999999999884 2458.2999999999884 2478.2999999999884 2498.2999999999884 2518.2999999999884
cb_03,14.0,enc_trial,stim,response,Miami trip,1238.500000023836,enc_trial,1.0,14.0,t_s_06_1,travel_shared,fold-b,luggage,3.0,competing,close,paired,t_s_06_1.jpg,,travel-b1,Iceland trip,Miami trip,sub-28,1.0,1.0,1.0,0.0,0.4958333333333334 0.4958333333333334 0.4958333333333334 0.4958333333333334 0.4958333333333334 0.4958333333333334 0.4958333333333334 0.4958333333333334 0.4958333333333334 0.4958333333333334 0.4958333333333334 0.4958333333333334 0.4958333333333334 0.4958333333333334 0.4958333333333334 0.4958333333333334 0.4958333333333334 0.4958333333333334 0.4958333333333334 0.4958333333333334 0.4958333333333334 0.4958333333333334 0.4958333333333334 0.4958333333333334 0.4958333333333334 0.4958333333333334 0.4958333333333334 0.4958333333333334 0.4958333333333334 0.4958333333333334 0.4958333333333334 0.4958333333333334 0.4958333333333334 0.4958333333333334 0.4958333333333334 0.4958333333333334 0.4958333333333334 0.4958333333333334 0.5027777777777778 0.5319444444444444 0.5881944444444445 0.6868055555555556 0.7444444444444445 0.7756944444444445 0.7854166666666667 0.7888888888888889 0.7972222222222223 0.8069444444444445 0.8097222222222222 0.8097222222222222 0.8097222222222222 0.8159722222222222 0.8354166666666667 0.85625 0.8708333333333333 0.8743055555555556 0.8743055555555556 0.8743055555555556 0.8743055555555556 0.8743055555555556 0.8743055555555556,0.8287037037037037 0.8287037037037037 0.8287037037037037 0.8287037037037037 0.8287037037037037 0.8287037037037037 0.8287037037037037 0.8287037037037037 0.8287037037037037 0.8287037037037037 0.8287037037037037 0.8277777777777777 0.8277777777777777 0.8277777777777777 0.8277777777777777 0.8277777777777777 0.8277777777777777 0.8277777777777777 0.8277777777777777 0.8277777777777777 0.8277777777777777 0.8277777777777777 0.8277777777777777 0.8277777777777777 0.8277777777777777 0.8277777777777777 0.8277777777777777 0.8277777777777777 0.8277777777777777 0.8277777777777777 0.8277777777777777 0.8277777777777777 0.8277777777777777 0.8277777777777777 0.8277777777777777 0.8277777777777777 0.8277777777777777 0.8277777777777777 0.7944444444444445 0.7083333333333333 0.575 0.3666666666666667 0.2601851851851852 0.20277777777777767 0.17314814814814816 0.15740740740740744 0.13703703703703707 0.12407407407407413 0.12222222222222225 0.12222222222222225 0.12222222222222225 0.11944444444444445 0.1148148148148148 0.11851851851851848 0.13055555555555556 0.13796296296296295 0.13981481481481484 0.13981481481481484 0.13981481481481484 0.13981481481481484 0.14074074074074072,42.39999999999418 62.39999999999418 82.3999999999942 102.39999999999418 122.39999999999418 142.39999999999418 162.39999999999418 182.39999999999415 202.39999999999415 222.39999999999415 242.39999999999415 262.3999999999942 282.3999999999942 302.3999999999942 322.3999999999942 342.3999999999942 362.3999999999942 382.3999999999942 402.3999999999942 422.3999999999942 442.3999999999942 462.3999999999942 482.3999999999942 502.3999999999942 522.3999999999942 542.3999999999942 562.3999999999942 582.3999999999943 602.3999999999943 622.3999999999943 642.3999999999943 662.3999999999943 682.3999999999943 702.3999999999942 722.3999999999942 742.3999999999942 762.3999999999942 782.3999999999942 802.3999999999942 822.3999999999942 842.3999999999942 862.3999999999942 882.3999999999942 902.3999999999942 922.3999999999942 942.3999999999942 962.3999999999942 982.3999999999942 1002.3999999999942 1022.3999999999942 1042.3999999999942 1062.3999999999942 1082.3999999999942 1102.3999999999942 1122.3999999999942 1142.3999999999942 1162.3999999999942 1182.3999999999942 1202.3999999999942 1222.3999999999942 1242.3999999999942
cb_03,15.0,enc_trial,stim,response,Miami trip,1020.5,enc_trial,1.0,15.0,t_m_17_1,travel_Miami,fold-a,water gun,3.0,unique,far,paired,t_m_17_1.jpg,Miami,travel-b1,Iceland trip,Miami trip,sub-28,1.0,1.0,1.0,1.0,0.4986111111111111 0.5291666666666667 0.6083333333333333 0.6805555555555556 0.7277777777777777 0.7395833333333334 0.75 0.7569444444444444 0.7604166666666666 0.7611111111111111 0.7611111111111111 0.7673611111111112 0.7777777777777778 0.8048611111111111 0.8340277777777778 0.8347222222222223 0.8347222222222223 0.8451388888888889 0.8520833333333333,0.8157407407407408 0.7462962962962962 0.5740740740740741 0.4046296296296297 0.2851851851851852 0.24537037037037035 0.2138888888888889 0.20092592592592595 0.19907407407407407 0.19907407407407407 0.2 0.2083333333333333 0.21018518518518514 0.19814814814814816 0.1898148148148148 0.1898148148148148 0.1898148148148148 0.18518518518518529 0.18240740740740746,636.8999999999943 656.8999999999943 676.8999999999943 696.8999999999942 716.8999999999942 736.8999999999942 756.8999999999942 776.8999999999942 796.8999999999942 816.8999999999942 836.8999999999942 856.8999999999942 876.8999999999942 896.8999999999942 916.8999999999944 936.8999999999944 956.8999999999944 976.8999999999944 996.8999999999944
cb_03,16.0,enc_trial,stim,response,Miami trip,897.2000000119151,enc_trial,1.0,16.0,t_m_20_2,travel_Miami,fold-e,inflatable beachball,3.0,unique,close,paired,t_m_20_2.jpg,Miami,travel-b1,Iceland trip,Miami trip,sub-28,1.0,1.0,1.0,1.0,0.5013888888888889 0.5263888888888889 0.5763888888888888 0.6263888888888889 0.6736111111111112 0.6951388888888889 0.7034722222222223 0.7083333333333334 0.7208333333333333 0.73125 0.7354166666666667 0.7472222222222222 0.7722222222222223 0.7944444444444444 0.8076388888888889 0.8277777777777777 0.8590277777777777 0.8819444444444444 0.8819444444444444 0.8819444444444444 0.8819444444444444,0.8268518518518518 0.7620370370370371 0.6388888888888888 0.5111111111111111 0.3925925925925926 0.3388888888888889 0.3064814814814815 0.2787037037037037 0.2398148148148148 0.21111111111111114 0.2 0.18240740740740746 0.15740740740740744 0.1342592592592593 0.12129629629629635 0.11388888888888893 0.1074074074074074 0.10648148148148152 0.10648148148148152 0.10648148148148152 0.1074074074074074,485.19999999998254 505.19999999998254 525.1999999999825 545.1999999999825 565.1999999999825 585.1999999999825 605.1999999999825 625.1999999999825 645.1999999999825 665.1999999999825 685.1999999999825 705.1999999999824 725.1999999999824 745.1999999999824 765.1999999999824 785.1999999999824 805.1999999999824 825.1999999999824 845.1999999999824 865.1999999999824 885.1999999999824
cb_03,17.0,enc_trial,stim,response,Iceland trip,1011.8999999880908,enc_trial,1.0,17.0,t_i_15_2,travel_Iceland,fold-a,compass,3.0,unique,far,paired,t_i_15_2.jpg,Iceland,travel-b1,Iceland trip,Miami trip,sub-28,1.0,1.0,1.0,1.0,0.4965277777777778 0.4965277777777778 0.4965277777777778 0.4965277777777778 0.4965277777777778 0.4965277777777778 0.4965277777777778 0.4965277777777778 0.4965277777777778 0.4965277777777778 0.4965277777777778 0.4965277777777778 0.4965277777777778 0.4965277777777778 0.4965277777777778 0.4965277777777778 0.4965277777777778 0.4965277777777778 0.4965277777777778 0.4965277777777778 0.4965277777777778 0.4965277777777778 0.4965277777777778 0.4965277777777778 0.4965277777777778 0.4965277777777778 0.4965277777777778 0.4965277777777778 0.4958333333333334 0.4923611111111112 0.4868055555555556 0.4569444444444444 0.4236111111111111 0.3784722222222222 0.3034722222222222 0.2493055555555556 0.22083333333333333 0.20972222222222225 0.20555555555555555 0.20347222222222225 0.1993055555555556 0.19652777777777766 0.19652777777777766 0.19652777777777766 0.1951388888888889 0.17222222222222222 0.1423611111111111 0.125 0.12083333333333332,0.8388888888888889 0.8388888888888889 0.8388888888888889 0.8388888888888889 0.8388888888888889 0.8388888888888889 0.8388888888888889 0.8388888888888889 0.8388888888888889 0.8388888888888889 0.8388888888888889 0.8388888888888889 0.8388888888888889 0.837962962962963 0.837962962962963 0.837962962962963 0.837962962962963 0.837962962962963 0.837962962962963 0.837962962962963 0.837962962962963 0.837962962962963 0.837962962962963 0.837962962962963 0.837962962962963 0.837962962962963 0.837962962962963 0.837962962962963 0.8166666666666667 0.775 0.725 0.6333333333333333 0.5509259259259259 0.4703703703703703 0.3740740740740741 0.3027777777777778 0.25 0.225 0.2203703703703704 0.21666666666666667 0.2129629629629629 0.21111111111111114 0.21111111111111114 0.21111111111111114 0.21111111111111114 0.20185185185185184 0.1694444444444444 0.13148148148148153 0.11111111111111116,6.0 26.0 46.0 66.0 86.0 106.0 126.0 146.0 166.0 186.0 206.0 226.0 246.0 266.0 286.0 306.0 326.0 346.0 366.0 386.0 406.0 426.0 446.0 466.0 486.0 506.0 526.0 546.0 566.0 586.0 606.0 626.0 646.0 666.0 686.0 706.0 726.0 746.0 766.0 786.0 806.0 826.0 846.0 866.0 886.0 906.0 926.0 946.0 966.0
cb_03,18.0,enc_trial,stim,response,Miami trip,2035.6000000119093,enc_trial,1.0,18.0,t_s_24_2,travel_shared,fold-c,ear plugs,3.0,competing,far,paired,t_s_24_2.jpg,,travel-b1,Iceland trip,Miami trip,sub-28,0.0,0.0,1.0,1.0,0.5055555555555555 0.5229166666666667 0.5618055555555556 0.6020833333333333 0.6541666666666667 0.6833333333333333 0.6951388888888889 0.6951388888888889 0.6923611111111111 0.6902777777777778 0.6868055555555556 0.6798611111111111 0.6770833333333334 0.6770833333333334 0.6770833333333334 0.6770833333333334 0.6770833333333334 0.6784722222222223 0.69375 0.7326388888888888 0.775 0.8402777777777778 0.8805555555555555 0.8930555555555556 0.8930555555555556 0.8930555555555556 0.8930555555555556 0.8923611111111112 0.8909722222222223 0.8875 0.88125 0.8465277777777778 0.7951388888888888 0.7138888888888889 0.5236111111111111 0.3958333333333333 0.3236111111111111 0.3034722222222222 0.3034722222222222 0.3034722222222222 0.3034722222222222 0.3034722222222222 0.30277777777777776 0.28541666666666665 0.25972222222222224 0.2361111111111111 0.2076388888888889 0.1840277777777778 0.16597222222222222 0.16597222222222222 0.16597222222222222 0.16597222222222222 0.16597222222222222 0.16527777777777775 0.20069444444444445 0.2826388888888889 0.4319444444444445 0.5694444444444444 0.6861111111111111 0.7236111111111111 0.7305555555555555 0.7305555555555555 0.7305555555555555 0.7319444444444444 0.7416666666666667 0.7506944444444444 0.7541666666666667 0.7569444444444444 0.7861111111111111 0.8201388888888889 0.8444444444444444 0.8506944444444444 0.8506944444444444 0.8506944444444444,0.825925925925926 0.7712962962962963 0.675 0.5953703703703703 0.4805555555555555 0.4009259259259259 0.34351851851851856 0.2944444444444444 0.28148148148148144 0.2768518518518519 0.2768518518518519 0.275 0.27407407407407397 0.27407407407407397 0.2731481481481481 0.2731481481481481 0.2731481481481481 0.27222222222222225 0.25462962962962965 0.2157407407407408 0.17222222222222228 0.10925925925925928 0.07407407407407407 0.06481481481481477 0.06481481481481477 0.06481481481481477 0.06481481481481477 0.06481481481481477 0.06666666666666665 0.06944444444444442 0.07685185185185184 0.09537037037037033 0.1074074074074074 0.12037037037037035 0.13888888888888884 0.11851851851851848 0.0907407407407408 0.08611111111111114 0.08611111111111114 0.08611111111111114 0.08611111111111114 0.08611111111111114 0.08703703703703702 0.09351851851851856 0.0972222222222222 0.09999999999999998 0.10462962962962964 0.10833333333333328 0.11018518518518516 0.11018518518518516 0.11018518518518516 0.11018518518518516 0.11018518518518516 0.11296296296296293 0.11018518518518516 0.0981481481481481 0.08981481481481479 0.0888888888888889 0.08981481481481479 0.08981481481481479 0.0907407407407408 0.09259259259259256 0.09537037037037033 0.0981481481481481 0.1074074074074074 0.11759259259259258 0.12407407407407413 0.12870370370370365 0.13888888888888884 0.14537037037037034 0.15000000000000002 0.1518518518518519 0.15370370370370368 0.15462962962962967,570.1999999999825 590.1999999999825 610.1999999999825 630.1999999999825 650.1999999999825 670.1999999999825 690.1999999999824 710.1999999999824 730.1999999999824 750.1999999999824 770.1999999999824 790.1999999999824 810.1999999999824 830.1999999999824 850.1999999999824 870.1999999999824 890.1999999999824 910.1999999999823 930.1999999999823 950.1999999999823 970.1999999999823 990.1999999999823 1010.1999999999823 1030.1999999999823 1050.1999999999823 1070.1999999999823 1090.1999999999823 1110.1999999999823 1130.1999999999825 1150.1999999999825 1170.1999999999825 1190.1999999999825 1210.1999999999825 1230.1999999999825 1250.1999999999825 1270.1999999999825 1290.1999999999825 1310.1999999999825 1330.1999999999825 1350.1999999999825 1370.1999999999825 1390.1999999999825 1410.1999999999825 1430.1999999999825 1450.1999999999825 1470.1999999999825 1490.1999999999825 1510.1999999999825 1530.1999999999825 1550.1999999999825 1570.1999999999825 1590.1999999999825 1610.1999999999825 1630.1999999999825 1650.1999999999825 1670.1999999999825 1690.1999999999825 1710.1999999999825 1730.1999999999825 1750.1999999999825 1770.1999999999825 1790.1999999999825 1810.1999999999825 1830.1999999999825 1850.1999999999825 1870.1999999999825 1890.1999999999825 1910.1999999999825 1930.1999999999825 1950.1999999999825 1970.1999999999825 1990.1999999999825 2010.1999999999825 2030.1999999999825
cb_03,19.0,enc_trial,stim,response,Iceland trip,1896.5000000119326,enc_trial,1.0,19.0,t_s_23_2,travel_shared,fold-c,ball cap,3.0,competing,far,paired,t_s_23_2.jpg,,travel-b1,Iceland trip,Miami trip,sub-28,1.0,1.0,1.0,0.0,0.4993055555555556 0.4875 0.4659722222222222 0.4423611111111111 0.3958333333333333 0.3638888888888889 0.3430555555555556 0.3215277777777778 0.30277777777777776 0.28402777777777777 0.26805555555555555 0.2569444444444444 0.2486111111111111 0.2395833333333333 0.2263888888888889 0.21388888888888888 0.20277777777777767 0.18958333333333333 0.17708333333333334 0.16458333333333333 0.15347222222222226 0.1388888888888889 0.12708333333333333 0.12013888888888888 0.11597222222222225 0.11388888888888887 0.10972222222222222 0.10625 0.10555555555555557 0.10555555555555557 0.10555555555555557 0.10555555555555557 0.10555555555555557 0.10555555555555557 0.10555555555555557 0.10555555555555557 0.10555555555555557 0.10555555555555557 0.10555555555555557 0.10555555555555557 0.10555555555555557 0.10555555555555557 0.10555555555555557 0.10555555555555557 0.10555555555555557 0.10555555555555557 0.10555555555555557 0.10555555555555557 0.10555555555555557 0.10555555555555557 0.10555555555555557 0.10555555555555557,0.825925925925926 0.7962962962962963 0.7527777777777778 0.7055555555555555 0.6231481481481482 0.5685185185185185 0.5194444444444444 0.462037037037037 0.4277777777777778 0.3944444444444445 0.3657407407407407 0.3472222222222222 0.337037037037037 0.3240740740740741 0.3055555555555556 0.29074074074074074 0.275 0.25370370370370365 0.2361111111111112 0.21666666666666667 0.20092592592592595 0.18333333333333326 0.17222222222222228 0.16481481481481486 0.15833333333333333 0.15370370370370368 0.14814814814814814 0.1435185185185185 0.1425925925925926 0.14166666666666672 0.14166666666666672 0.14166666666666672 0.14166666666666672 0.14166666666666672 0.14166666666666672 0.14166666666666672 0.14166666666666672 0.14166666666666672 0.14166666666666672 0.14166666666666672 0.14166666666666672 0.14166666666666672 0.14166666666666672 0.14166666666666672 0.14166666666666672 0.14166666666666672 0.14166666666666672 0.14166666666666672 0.14166666666666672 0.14166666666666672 0.14166666666666672 0.1425925925925926,837.0 857.0 877.0 897.0 917.0 937.0 957.0 977.0 997.0 1017.0 1037.0 1057.0 1077.0 1097.0 1117.0 1137.0 1157.0 1177.0 1197.0 1217.0 1237.0 1257.0 1277.0 1297.0 1317.0 1337.0 1357.0 1377.0 1397.0 1417.0 1437.0 1457.0 1477.0 1497.0 1517.0 1537.0 1557.0 1577.0 1597.0 1617.0 1637.0 1657.0 1677.0 1697.0 1717.0 1737.0 1757.0 1777.0 1797.0 1817.0 1837.0 1857.0
cb_03,20.0,enc_trial,stim,response,Iceland trip,1198.0000000119326,enc_trial,1.0,20.0,t_s_06_2,travel_shared,fold-b,luggage,3.0,competing,close,paired,t_s_06_2.jpg,,travel-b1,Iceland trip,Miami trip,sub-28,1.0,1.0,1.0,0.0,0.4979166666666667 0.4944444444444445 0.4847222222222222 0.4715277777777778 0.4388888888888889 0.40208333333333335 0.35694444444444445 0.31527777777777777 0.30069444444444443 0.2965277777777778 0.2916666666666667 0.2743055555555556 0.25069444444444444 0.2375 0.21875 0.2013888888888889 0.1763888888888889 0.13819444444444445 0.12083333333333332 0.11597222222222225,0.8268518518518518 0.8018518518518518 0.7379629629629629 0.6490740740740741 0.5055555555555555 0.3925925925925926 0.3157407407407408 0.2703703703703704 0.25648148148148153 0.2509259259259259 0.24722222222222226 0.2435185185185185 0.2388888888888889 0.2314814814814815 0.2129629629629629 0.20092592592592595 0.1907407407407408 0.17500000000000004 0.16574074074074074 0.1620370370370371,776.5 796.5 816.5 836.5 856.5 876.5 896.5 916.5 936.5 956.5 976.5 996.5 1016.5 1036.5 1056.5 1076.5 1096.5 1116.5 1136.5 1156.5
cb_03,21.0,enc_trial,stim,response,Iceland trip,1430.1000000357744,enc_trial,1.0,21.0,t_s_04_1,travel_shared,fold-c,instant camera,3.0,competing,far,paired,t_s_04_1.jpg,,travel-b1,Iceland trip,Miami trip,sub-28,1.0,1.0,1.0,1.0,0.4944444444444445 0.5034722222222222 0.5104166666666666 0.5125 0.5125 0.5125 0.5125 0.5125 0.5125 0.5125 0.5125 0.5125 0.5076388888888889 0.4888888888888889 0.4555555555555556 0.425 0.37222222222222223 0.2986111111111111 0.27361111111111114 0.2673611111111111 0.2673611111111111 0.2673611111111111 0.2625 0.2493055555555556 0.2263888888888889 0.21597222222222226 0.21180555555555555 0.20555555555555555 0.19375 0.1798611111111111 0.17222222222222222 0.17152777777777778 0.17152777777777778 0.17152777777777778 0.17083333333333334 0.17083333333333334 0.17083333333333334 0.17083333333333334 0.1701388888888889 0.16944444444444445,0.825 0.8305555555555555 0.8333333333333334 0.8342592592592593 0.8342592592592593 0.8342592592592593 0.8342592592592593 0.8342592592592593 0.8342592592592593 0.8342592592592593 0.8342592592592593 0.8342592592592593 0.8222222222222222 0.762962962962963 0.6064814814814814 0.4592592592592593 0.29814814814814816 0.17129629629629628 0.14074074074074072 0.1351851851851852 0.1351851851851852 0.1351851851851852 0.13981481481481484 0.15000000000000002 0.15462962962962967 0.15462962962962967 0.15462962962962967 0.15833333333333333 0.1601851851851852 0.15833333333333333 0.1518518518518519 0.1509259259259259 0.1509259259259259 0.1509259259259259 0.1509259259259259 0.1509259259259259 0.1509259259259259 0.1509259259259259 0.1509259259259259 0.1509259259259259,448.90000000002334 468.90000000002334 488.90000000002334 508.90000000002334 528.9000000000234 548.9000000000234 568.9000000000233 588.9000000000233 608.9000000000233 628.9000000000233 648.9000000000233 668.9000000000233 688.9000000000232 708.9000000000232 728.9000000000232 748.9000000000232 768.9000000000232 788.9000000000232 808.9000000000232 828.9000000000232 848.9000000000232 868.9000000000232 888.9000000000232 908.9000000000232 928.9000000000232 948.9000000000232 968.9000000000232 988.9000000000232 1008.9000000000232 1028.9000000000233 1048.9000000000233 1068.9000000000233 1088.9000000000233 1108.9000000000233 1128.9000000000233 1148.9000000000233 1168.9000000000233 1188.9000000000233 1208.9000000000233 1228.9000000000233
cb_03,22.0,enc_trial,stim,response,Iceland trip,1154.6000000357744,enc_trial,1.0,22.0,t_i_13_1,travel_Iceland,fold-a,sleeping bag,3.0,unique,far,paired,t_i_13_1.jpg,Iceland,travel-b1,Iceland trip,Miami trip,sub-28,1.0,1.0,1.0,1.0,0.5027777777777778 0.5027777777777778 0.5027777777777778 0.5027777777777778 0.5027777777777778 0.5027777777777778 0.5027777777777778 0.5027777777777778 0.5027777777777778 0.5027777777777778 0.5027777777777778 0.5027777777777778 0.5027777777777778 0.5027777777777778 0.5027777777777778 0.5027777777777778 0.5027777777777778 0.5027777777777778 0.5027777777777778 0.5027777777777778 0.5027777777777778 0.5027777777777778 0.5027777777777778 0.5027777777777778 0.5027777777777778 0.5027777777777778 0.5027777777777778 0.4736111111111111 0.4215277777777778 0.3611111111111111 0.30277777777777776 0.2458333333333333 0.24097222222222225 0.2416666666666667 0.24375 0.24375 0.24305555555555555 0.24305555555555555 0.24305555555555555 0.24305555555555555 0.2416666666666667 0.2069444444444445 0.1736111111111111 0.15208333333333332 0.1451388888888889 0.14444444444444446,0.8324074074074074 0.8324074074074074 0.8324074074074074 0.8324074074074074 0.8324074074074074 0.8324074074074074 0.8324074074074074 0.8324074074074074 0.8324074074074074 0.8324074074074074 0.8324074074074074 0.8324074074074074 0.8324074074074074 0.8324074074074074 0.8324074074074074 0.8324074074074074 0.8324074074074074 0.8324074074074074 0.8324074074074074 0.8324074074074074 0.8324074074074074 0.8324074074074074 0.8324074074074074 0.8324074074074074 0.8324074074074074 0.8324074074074074 0.8324074074074074 0.7796296296296297 0.6685185185185185 0.5287037037037037 0.3935185185185185 0.2861111111111111 0.27407407407407397 0.2731481481481481 0.27222222222222225 0.27129629629629626 0.2675925925925926 0.2675925925925926 0.2675925925925926 0.2675925925925926 0.2666666666666667 0.23703703703703705 0.20370370370370366 0.18148148148148147 0.17222222222222228 0.17129629629629628,200.10000000000585 220.10000000000585 240.10000000000585 260.1000000000058 280.1000000000058 300.1000000000058 320.1000000000058 340.1000000000058 360.1000000000058 380.1000000000058 400.1000000000058 420.1000000000058 440.1000000000058 460.1000000000058 480.1000000000058 500.1000000000058 520.1000000000058 540.1000000000058 560.1000000000058 580.1000000000057 600.1000000000057 620.1000000000057 640.1000000000057 660.1000000000057 680.1000000000057 700.1000000000058 720.1000000000058 740.1000000000058 760.1000000000058 780.1000000000058 800.1000000000058 820.1000000000058 840.1000000000058 860.1000000000058 880.1000000000058 900.1000000000058 920.1000000000058 940.1000000000058 960.1000000000058 980.1000000000058 1000.1000000000058 1020.1000000000058 1040.1000000000058 1060.1000000000058 1080.1000000000058 1100.1000000000058
cb_03,23.0,enc_trial,stim,response,Miami trip,1115.8000000238535,enc_trial,1.0,23.0,t_s_05_1,travel_shared,fold-a-single,neck pillow,3.0,competing,,single,t_s_05_1.jpg,,travel-b1,Iceland trip,Miami trip,sub-28,1.0,,1.0,,0.5041666666666667 0.5104166666666666 0.51875 0.5395833333333333 0.60625 0.6708333333333333 0.7298611111111111 0.76875 0.7881944444444444 0.7972222222222223 0.8041666666666667 0.8090277777777778 0.8090277777777778 0.8090277777777778 0.8222222222222222 0.8493055555555555 0.8722222222222222 0.8763888888888889 0.8763888888888889 0.8756944444444444 0.8756944444444444 0.8756944444444444,0.8333333333333334 0.8212962962962963 0.8064814814814815 0.7712962962962963 0.6601851851851852 0.5555555555555556 0.4564814814814815 0.3657407407407407 0.30925925925925923 0.2833333333333333 0.2666666666666667 0.2592592592592593 0.2592592592592593 0.2583333333333333 0.2398148148148148 0.20740740740740726 0.1907407407407408 0.18796296296296305 0.18703703703703692 0.1787037037037037 0.17222222222222228 0.16666666666666666,673.3000000000175 693.3000000000176 713.3000000000176 733.3000000000176 753.3000000000176 773.3000000000176 793.3000000000176 813.3000000000176 833.3000000000176 853.3000000000176 873.3000000000176 893.3000000000176 913.3000000000177 933.3000000000177 953.3000000000177 973.3000000000177 993.3000000000177 1013.3000000000177 1033.3000000000177 1053.3000000000177 1073.3000000000177 1093.3000000000177
cb_03,24.0,enc_trial,stim,response,Iceland trip,1019.7999999880847,enc_trial,1.0,24.0,t_i_17_1,travel_Iceland,fold-e,binoculars,3.0,unique,close,paired,t_i_17_1.jpg,Iceland,travel-b1,Iceland trip,Miami trip,sub-28,1.0,1.0,1.0,1.0,0.4916666666666666 0.4701388888888889 0.4354166666666667 0.39375 0.31875 0.2756944444444445 0.2569444444444444 0.24305555555555555 0.22847222222222224 0.20208333333333334 0.18055555555555555 0.16458333333333333 0.16180555555555556 0.16041666666666668 0.1597222222222222 0.1597222222222222 0.1527777777777778 0.14444444444444446 0.14166666666666666,0.8194444444444444 0.7583333333333333 0.6444444444444444 0.5287037037037037 0.4 0.3305555555555556 0.2861111111111111 0.2509259259259259 0.2333333333333333 0.2129629629629629 0.1944444444444444 0.1805555555555556 0.17592592592592593 0.17314814814814816 0.17222222222222228 0.17222222222222228 0.16666666666666666 0.15555555555555556 0.1527777777777778,643.0 663.0 683.0 703.0 723.0 743.0 763.0 783.0 803.0 823.0 843.0 863.0 883.0 903.0 923.0 943.0 963.0 983.0 1003.0
cb_03,25.0,enc_trial,stim,response,Miami trip,953.1000000000058,enc_trial,1.0,25.0,t_m_01_2,travel_Miami,fold-a,sandals,3.0,unique,far,paired,t_m_01_2.jpg,Miami,travel-b1,Iceland trip,Miami trip,sub-28,1.0,1.0,1.0,1.0,0.5076388888888889 0.5388888888888889 0.6243055555555556 0.7256944444444444 0.8277777777777777 0.8902777777777777 0.9173611111111112 0.9180555555555556 0.9180555555555556 0.9180555555555556 0.9180555555555556 0.9180555555555556 0.9159722222222222 0.9152777777777776 0.9083333333333332 0.8916666666666667 0.8784722222222222 0.8743055555555556 0.8736111111111111,0.8361111111111111 0.749074074074074 0.5666666666666667 0.3629629629629629 0.18240740740740746 0.11296296296296293 0.0888888888888889 0.0888888888888889 0.0888888888888889 0.08981481481481479 0.08981481481481479 0.08981481481481479 0.09444444444444444 0.09629629629629632 0.11111111111111116 0.13611111111111107 0.1518518518518519 0.15648148148148144 0.15740740740740744,552.1000000000058 572.1000000000057 592.1000000000057 612.1000000000057 632.1000000000057 652.1000000000057 672.1000000000057 692.1000000000058 712.1000000000058 732.1000000000058 752.1000000000058 772.1000000000058 792.1000000000058 812.1000000000058 832.1000000000058 852.1000000000058 872.1000000000058 892.1000000000058 912.1000000000058
cb_03,26.0,enc_trial,stim,response,Miami trip,897.6000000000058,enc_trial,1.0,26.0,t_m_18_1,travel_Miami,fold-b-single,waterproof tote,3.0,unique,,single,t_m_18_1.jpg,Miami,travel-b1,Iceland trip,Miami trip,sub-28,1.0,,1.0,,0.5090277777777777 0.5055555555555555 0.5034722222222222 0.5020833333333333 0.5013888888888889 0.5013888888888889 0.5013888888888889 0.5013888888888889 0.5013888888888889 0.5013888888888889 0.5013888888888889 0.5013888888888889 0.5013888888888889 0.50625 0.5444444444444444 0.5944444444444444 0.65625 0.7340277777777777 0.7833333333333333 0.8118055555555556 0.8291666666666667 0.8423611111111111 0.8451388888888889 0.8451388888888889 0.8451388888888889 0.8451388888888889 0.8458333333333333,0.8046296296296296 0.8018518518518518 0.8018518518518518 0.8009259259259259 0.8009259259259259 0.8009259259259259 0.8009259259259259 0.8009259259259259 0.8009259259259259 0.8009259259259259 0.8009259259259259 0.8009259259259259 0.8 0.7833333333333333 0.700925925925926 0.6148148148148148 0.5148148148148148 0.3814814814814815 0.2944444444444444 0.2314814814814815 0.18796296296296305 0.1444444444444445 0.1351851851851852 0.1351851851851852 0.1351851851851852 0.1351851851851852 0.1351851851851852,285.1000000000058 305.1000000000058 325.1000000000058 345.1000000000058 365.1000000000058 385.1000000000058 405.1000000000058 425.1000000000058 445.1000000000058 465.1000000000058 485.1000000000058 505.1000000000058 525.1000000000058 545.1000000000058 565.1000000000057 585.1000000000057 605.1000000000057 625.1000000000057 645.1000000000057 665.1000000000057 685.1000000000057 705.1000000000058 725.1000000000058 745.1000000000058 765.1000000000058 785.1000000000058 805.1000000000058
cb_03,27.0,enc_trial,stim,response,Miami trip,1648.1000000238419,enc_trial,1.0,27.0,t_s_10_2,travel_shared,fold-c,luggage lock,3.0,competing,far,paired,t_s_10_2.jpg,,travel-b1,Iceland trip,Miami trip,sub-28,1.0,1.0,0.0,0.0,0.5 0.5020833333333333 0.50625 0.5090277777777777 0.5118055555555555 0.5145833333333333 0.51875 0.5263888888888889 0.5340277777777778 0.5423611111111111 0.5472222222222223 0.5486111111111112 0.54375 0.5395833333333333 0.5395833333333333 0.5472222222222223 0.5583333333333333 0.5909722222222222 0.6298611111111111 0.6868055555555556 0.7305555555555555 0.7548611111111111 0.7715277777777778 0.7854166666666667 0.7916666666666666 0.79375 0.8006944444444445 0.81875 0.8270833333333333 0.8277777777777777 0.8277777777777777 0.8326388888888889 0.8368055555555556 0.8388888888888889 0.8388888888888889 0.8395833333333333,0.8166666666666667 0.8148148148148149 0.812962962962963 0.8101851851851851 0.8083333333333333 0.8055555555555556 0.8009259259259259 0.7888888888888889 0.7712962962962963 0.7518518518518519 0.7287037037037036 0.6731481481481482 0.6009259259259259 0.537037037037037 0.4703703703703703 0.4407407407407408 0.4240740740740741 0.3925925925925926 0.3583333333333333 0.31666666666666665 0.29074074074074074 0.2685185185185185 0.24629629629629635 0.2305555555555555 0.2240740740740741 0.2203703703703704 0.20925925925925928 0.19166666666666665 0.18703703703703692 0.18703703703703692 0.18703703703703692 0.18240740740740746 0.17685185185185182 0.17592592592592593 0.17592592592592593 0.17592592592592593,788.5 808.5 828.5 848.5 868.5 888.5 908.5 928.5 948.5 968.5 988.5 1008.5 1028.5 1048.5 1068.5 1088.5 1108.5 1128.5 1148.5 1168.5 1188.5 1208.5 1228.5 1248.5 1268.5 1288.5 1308.5 1328.5 1348.5 1368.5 1388.5 1408.5 1428.5 1448.5 1468.5 1488.5
cb_03,28.0,enc_trial,stim,response,Iceland trip,1005.0000000357686,enc_trial,1.0,28.0,t_i_02_1,travel_Iceland,fold-e,scarf,3.0,unique,close,paired,t_i_02_1.jpg,Iceland,travel-b1,Iceland trip,Miami trip,sub-28,1.0,1.0,1.0,1.0,0.5076388888888889 0.5027777777777778 0.4791666666666667 0.4284722222222222 0.3395833333333333 0.27361111111111114 0.2381944444444445 0.2326388888888889 0.2326388888888889 0.2326388888888889 0.2326388888888889 0.23194444444444445 0.23194444444444445 0.23194444444444445 0.21041666666666667 0.18263888888888888 0.16111111111111112 0.1486111111111111 0.14791666666666667,0.8324074074074074 0.7731481481481481 0.6324074074074074 0.475 0.2685185185185185 0.18240740740740746 0.1509259259259259 0.14629629629629626 0.14629629629629626 0.14629629629629626 0.14537037037037034 0.1444444444444445 0.1444444444444445 0.1444444444444445 0.14629629629629626 0.13703703703703707 0.125 0.12037037037037035 0.11944444444444445,594.3999999999943 614.3999999999943 634.3999999999943 654.3999999999943 674.3999999999943 694.3999999999942 714.3999999999942 734.3999999999942 754.3999999999942 774.3999999999942 794.3999999999942 814.3999999999942 834.3999999999942 854.3999999999942 874.3999999999942 894.3999999999942 914.3999999999944 934.3999999999944 954.3999999999944
cb_03,29.0,enc_trial,stim,response,Iceland trip,1126.6000000357744,enc_trial,1.0,29.0,t_i_17_2,travel_Iceland,fold-e,binoculars,3.0,unique,close,paired,t_i_17_2.jpg,Iceland,travel-b1,Iceland trip,Miami trip,sub-28,1.0,1.0,1.0,1.0,0.4993055555555556 0.4986111111111111 0.4965277777777778 0.4888888888888889 0.45625 0.4284722222222222 0.4097222222222222 0.3979166666666665 0.3868055555555556 0.3659722222222222 0.33125 0.2770833333333333 0.2458333333333333 0.22291666666666668 0.1993055555555556 0.1840277777777778 0.1763888888888889 0.17569444444444446 0.175 0.1701388888888889 0.15902777777777774 0.1486111111111111 0.14652777777777778 0.14652777777777778 0.14652777777777778 0.14652777777777778 0.14583333333333334 0.14583333333333334 0.14583333333333334 0.14583333333333334 0.14583333333333334 0.14652777777777778 0.14652777777777778,0.8277777777777777 0.8138888888888889 0.7916666666666666 0.749074074074074 0.6555555555555556 0.5796296296296296 0.5259259259259259 0.4805555555555555 0.4509259259259261 0.4083333333333333 0.3453703703703703 0.2694444444444445 0.2314814814814815 0.2055555555555556 0.18148148148148147 0.16574074074074074 0.1601851851851852 0.1592592592592592 0.1592592592592592 0.15370370370370368 0.14166666666666672 0.125 0.12129629629629635 0.12129629629629635 0.12129629629629635 0.12129629629629635 0.12129629629629635 0.12129629629629635 0.12129629629629635 0.12129629629629635 0.12129629629629635 0.12222222222222225 0.12314814814814813,479.1000000000058 499.1000000000058 519.1000000000058 539.1000000000058 559.1000000000058 579.1000000000057 599.1000000000057 619.1000000000057 639.1000000000057 659.1000000000057 679.1000000000057 699.1000000000058 719.1000000000058 739.1000000000058 759.1000000000058 779.1000000000058 799.1000000000058 819.1000000000058 839.1000000000058 859.1000000000058 879.1000000000058 899.1000000000058 919.1000000000058 939.1000000000058 959.1000000000058 979.1000000000058 999.1000000000058 1019.1000000000058 1039.1000000000058 1059.1000000000058 1079.1000000000058 1099.1000000000058 1119.1000000000058
cb_03,30.0,enc_trial,stim,response,Miami trip,1354.2999999880851,enc_trial,1.0,30.0,t_s_22_1,travel_shared,fold-a-single,belt,3.0,competing,,single,t_s_22_1.jpg,,travel-b1,Iceland trip,Miami trip,sub-28,1.0,,1.0,,0.5034722222222222 0.4993055555555556 0.4888888888888889 0.4736111111111111 0.4354166666666667 0.3972222222222222 0.3555555555555556 0.3125 0.2881944444444444 0.2673611111111111 0.2618055555555556 0.27291666666666664 0.3284722222222222 0.43125 0.5666666666666667 0.6506944444444445 0.6916666666666667 0.6951388888888889 0.6951388888888889 0.6986111111111111 0.7048611111111112 0.7180555555555556 0.7368055555555556 0.7694444444444445 0.8222222222222222 0.8527777777777777 0.8729166666666667 0.8770833333333333 0.8770833333333333 0.8770833333333333 0.8770833333333333,0.8333333333333334 0.8166666666666667 0.7842592592592592 0.7379629629629629 0.6351851851851852 0.5388888888888889 0.4462962962962963 0.3574074074074074 0.29814814814814816 0.2629629629629629 0.25462962962962965 0.2388888888888889 0.19907407407407407 0.15462962962962967 0.11944444444444445 0.11203703703703703 0.11018518518518516 0.11018518518518516 0.11018518518518516 0.11111111111111116 0.1166666666666667 0.12870370370370365 0.13981481481481484 0.15462962962962967 0.1685185185185185 0.17222222222222228 0.17500000000000004 0.17592592592592593 0.17592592592592593 0.17592592592592593 0.17685185185185182,764.3000000000177 784.3000000000177 804.3000000000177 824.3000000000177 844.3000000000177 864.3000000000177 884.3000000000177 904.3000000000177 924.3000000000177 944.3000000000177 964.3000000000177 984.3000000000177 1004.3000000000177 1024.3000000000177 1044.3000000000177 1064.3000000000177 1084.3000000000177 1104.3000000000177 1124.3000000000177 1144.3000000000175 1164.3000000000175 1184.3000000000175 1204.3000000000175 1224.3000000000175 1244.3000000000175 1264.3000000000175 1284.3000000000175 1304.3000000000175 1324.3000000000175 1344.3000000000175 1364.3000000000175
cb_03,31.0,enc_trial,stim,response,Miami trip,1265.2000000119149,enc_trial,1.0,31.0,t_s_12_1,travel_shared,fold-b,clear toiletry bag,3.0,competing,close,paired,t_s_12_1.jpg,,travel-b1,Iceland trip,Miami trip,sub-28,1.0,1.0,1.0,0.0,0.5090277777777777 0.5569444444444445 0.6604166666666667 0.7715277777777778 0.8576388888888888 0.8701388888888889 0.8708333333333333 0.8625 0.8534722222222222 0.8479166666666667 0.8458333333333333 0.8451388888888889 0.8465277777777778 0.85 0.8513888888888889 0.8548611111111111 0.8576388888888888 0.8583333333333333,0.8212962962962963 0.7231481481481481 0.5435185185185185 0.3111111111111111 0.06018518518518521 0.005555555555555536 0.002777777777777768 0.013888888888888841 0.037962962962962976 0.05833333333333335 0.07037037037037043 0.08148148148148149 0.08796296296296291 0.09999999999999998 0.12037037037037035 0.13796296296296295 0.14629629629629626 0.14722222222222225,752.1000000000058 772.1000000000058 792.1000000000058 812.1000000000058 832.1000000000058 852.1000000000058 872.1000000000058 892.1000000000058 912.1000000000058 932.1000000000058 952.1000000000058 972.1000000000058 992.1000000000058 1012.1000000000058 1032.1000000000058 1052.1000000000058 1072.1000000000058 1092.1000000000058
cb_03,32.0,enc_trial,stim,response,Miami trip,959.9000000119267,enc_trial,1.0,32.0,t_m_17_2,travel_Miami,fold-a,water gun,3.0,unique,far,paired,t_m_17_2.jpg,Miami,travel-b1,Iceland trip,Miami trip,sub-28,1.0,1.0,1.0,1.0,0.4986111111111111 0.5229166666666667 0.5805555555555556 0.6576388888888889 0.74375 0.7895833333333333 0.8111111111111111 0.8222222222222222 0.8243055555555555 0.8270833333333333 0.8291666666666667 0.8326388888888889 0.8354166666666667 0.8381944444444445 0.8465277777777778 0.8645833333333334 0.8861111111111111 0.8986111111111111 0.8993055555555556 0.8986111111111111 0.8986111111111111 0.8986111111111111,0.837037037037037 0.7833333333333333 0.6796296296296296 0.5537037037037037 0.4111111111111111 0.3203703703703704 0.2703703703703704 0.2444444444444445 0.2388888888888889 0.2314814814814815 0.22685185185185186 0.22129629629629632 0.2157407407407408 0.2129629629629629 0.2 0.17129629629629628 0.13888888888888884 0.125 0.12407407407407413 0.12222222222222225 0.12222222222222225 0.12129629629629635,539.8000000000175 559.8000000000175 579.8000000000175 599.8000000000175 619.8000000000175 639.8000000000175 659.8000000000175 679.8000000000175 699.8000000000176 719.8000000000176 739.8000000000176 759.8000000000176 779.8000000000176 799.8000000000176 819.8000000000176 839.8000000000176 859.8000000000176 879.8000000000176 899.8000000000176 919.8000000000177 939.8000000000177 959.8000000000177
cb_03,33.0,enc_trial,stim,response,Iceland trip,1129.7000000000114,enc_trial,1.0,33.0,t_i_02_2,travel_Iceland,fold-e,scarf,3.0,unique,close,paired,t_i_02_2.jpg,Iceland,travel-b1,Iceland trip,Miami trip,sub-28,1.0,1.0,1.0,1.0,0.5013888888888889 0.4909722222222222 0.4597222222222222 0.4111111111111111 0.3430555555555556 0.30625 0.2972222222222222 0.2861111111111111 0.25625 0.2152777777777778 0.1930555555555556 0.18611111111111112 0.18472222222222226 0.18055555555555555 0.15347222222222226 0.11319444444444444 0.07847222222222222 0.06666666666666668,0.8222222222222222 0.7657407407407407 0.6518518518518519 0.5074074074074074 0.3453703703703703 0.2972222222222223 0.2777777777777778 0.25555555555555554 0.2314814814814815 0.20925925925925928 0.1907407407407408 0.18148148148148147 0.18148148148148147 0.1787037037037037 0.1685185185185185 0.1444444444444445 0.1148148148148148 0.10370370370370374,752.1000000000058 772.1000000000058 792.1000000000058 812.1000000000058 832.1000000000058 852.1000000000058 872.1000000000058 892.1000000000058 912.1000000000058 932.1000000000058 952.1000000000058 972.1000000000058 992.1000000000058 1012.1000000000058 1032.1000000000058 1052.1000000000058 1072.1000000000058 1092.1000000000058
cb_03,34.0,enc_trial,stim,response,Iceland trip,1123.699999988079,enc_trial,1.0,34.0,t_s_12_2,travel_shared,fold-b,clear toiletry bag,3.0,competing,close,paired,t_s_12_2.jpg,,travel-b1,Iceland trip,Miami trip,sub-28,1.0,1.0,1.0,0.0,0.50625 0.5041666666666667 0.4840277777777778 0.4361111111111111 0.34652777777777777 0.2930555555555556 0.2465277777777778 0.20208333333333334 0.18263888888888888 0.17569444444444446 0.17291666666666666 0.16666666666666666 0.15763888888888888 0.15069444444444444 0.14583333333333334 0.14166666666666666 0.11388888888888887 0.05486111111111111 0.03819444444444445 0.0375 0.0375 0.04027777777777778 0.04791666666666667 0.06527777777777778 0.08958333333333332 0.09861111111111112 0.10347222222222224 0.10416666666666667,0.8268518518518518 0.7787037037037037 0.6861111111111111 0.5583333333333333 0.3935185185185185 0.3037037037037037 0.2342592592592593 0.16296296296296298 0.12685185185185188 0.1157407407407407 0.11296296296296293 0.1074074074074074 0.09444444444444444 0.08240740740740737 0.07592592592592595 0.07407407407407407 0.06481481481481477 0.04074074074074074 0.03425925925925921 0.03425925925925921 0.03425925925925921 0.04166666666666663 0.056481481481481466 0.07499999999999996 0.09907407407407408 0.11111111111111116 0.12037037037037035 0.12222222222222225,558.1000000000058 578.1000000000057 598.1000000000057 618.1000000000057 638.1000000000057 658.1000000000057 678.1000000000057 698.1000000000058 718.1000000000058 738.1000000000058 758.1000000000058 778.1000000000058 798.1000000000058 818.1000000000058 838.1000000000058 858.1000000000058 878.1000000000058 898.1000000000058 918.1000000000058 938.1000000000058 958.1000000000058 978.1000000000058 998.1000000000058 1018.1000000000058 1038.1000000000058 1058.1000000000058 1078.1000000000058 1098.1000000000058
cb_03,35.0,enc_trial,stim,response,Iceland trip,908.2000000357511,enc_trial,1.0,35.0,t_i_13_2,travel_Iceland,fold-a,sleeping bag,3.0,unique,far,paired,t_i_13_2.jpg,Iceland,travel-b1,Iceland trip,Miami trip,sub-28,1.0,1.0,1.0,1.0,0.5006944444444444 0.4784722222222222 0.42777777777777776 0.3541666666666667 0.2416666666666667 0.1930555555555556 0.18541666666666667 0.18541666666666667 0.18541666666666667 0.1840277777777778 0.18472222222222226 0.1840277777777778 0.18541666666666667 0.18541666666666667 0.17777777777777778 0.17569444444444446 0.17291666666666666 0.16527777777777775 0.1638888888888889 0.1638888888888889,0.8277777777777777 0.7555555555555555 0.6222222222222222 0.4462962962962963 0.24537037037037035 0.1907407407407408 0.18240740740740746 0.18240740740740746 0.18240740740740746 0.18425925925925926 0.18518518518518529 0.19166666666666665 0.2 0.20370370370370366 0.2129629629629629 0.2138888888888889 0.21111111111111114 0.19351851851851853 0.18518518518518529 0.18425925925925926,527.6999999999825 547.6999999999825 567.6999999999825 587.6999999999825 607.6999999999825 627.6999999999825 647.6999999999825 667.6999999999825 687.6999999999824 707.6999999999824 727.6999999999824 747.6999999999824 767.6999999999824 787.6999999999824 807.6999999999824 827.6999999999824 847.6999999999824 867.6999999999824 887.6999999999824 907.6999999999823
cb_03,36.0,enc_trial,stim,response,Miami trip,1044.3999999999942,enc_trial,1.0,36.0,t_s_21_1,travel_shared,fold-b,umbrella,3.0,competing,close,paired,t_s_21_1.jpg,,travel-b1,Iceland trip,Miami trip,sub-28,0.0,0.0,1.0,1.0,0.5041666666666667 0.5354166666666667 0.6125 0.7090277777777778 0.7958333333333333 0.8368055555555556 0.8541666666666666 0.8555555555555555 0.8555555555555555 0.8555555555555555 0.8555555555555555 0.8555555555555555 0.85625 0.8722222222222222 0.9041666666666668 0.9125,0.812962962962963 0.7546296296296297 0.6212962962962962 0.4351851851851852 0.2388888888888889 0.16296296296296298 0.12870370370370365 0.12407407407407413 0.12407407407407413 0.12407407407407413 0.12407407407407413 0.12407407407407413 0.12407407407407413 0.12222222222222225 0.12407407407407413 0.12777777777777774,679.3999999999943 699.3999999999942 719.3999999999942 739.3999999999942 759.3999999999942 779.3999999999942 799.3999999999942 819.3999999999942 839.3999999999942 859.3999999999942 879.3999999999942 899.3999999999942 919.3999999999944 939.3999999999944 959.3999999999944 979.3999999999944
cb_03,37.0,enc_trial,stim,response,Miami trip,1168.0000000357684,enc_trial,1.0,37.0,t_s_08_1,travel_shared,fold-a-single,hand lotion,3.0,competing,,single,t_s_08_1.jpg,,travel-b1,Iceland trip,Miami trip,sub-28,1.0,,1.0,,0.4916666666666666 0.4944444444444445 0.5 0.5083333333333333 0.5375 0.5763888888888888 0.6256944444444444 0.7013888888888888 0.7590277777777777 0.7868055555555555 0.7930555555555555 0.7930555555555555 0.7930555555555555 0.7930555555555555 0.79375 0.7958333333333333 0.8027777777777778 0.8118055555555556 0.8152777777777778 0.8201388888888889 0.8305555555555556 0.84375 0.8541666666666666 0.8583333333333333 0.8597222222222223,0.825925925925926 0.8185185185185185 0.8018518518518518 0.7759259259259259 0.7046296296296296 0.6212962962962962 0.5277777777777778 0.4009259259259259 0.30092592592592593 0.2407407407407407 0.2277777777777777 0.225925925925926 0.225925925925926 0.225925925925926 0.225 0.21666666666666667 0.20370370370370366 0.18703703703703692 0.18333333333333326 0.1777777777777778 0.16574074074074074 0.15000000000000002 0.13796296296296295 0.1342592592592593 0.1333333333333333,673.3000000000175 693.3000000000176 713.3000000000176 733.3000000000176 753.3000000000176 773.3000000000176 793.3000000000176 813.3000000000176 833.3000000000176 853.3000000000176 873.3000000000176 893.3000000000176 913.3000000000177 933.3000000000177 953.3000000000177 973.3000000000177 993.3000000000177 1013.3000000000177 1033.3000000000177 1053.3000000000177 1073.3000000000177 1093.3000000000177 1113.3000000000177 1133.3000000000175 1153.3000000000175
cb_03,38.0,enc_trial,stim,response,Miami trip,1194.3999999999942,enc_trial,1.0,38.0,t_m_16_1,travel_Miami,fold-b-single,flippers,3.0,unique,,single,t_m_16_1.jpg,Miami,travel-b1,Iceland trip,Miami trip,sub-28,1.0,,1.0,,0.5034722222222222 0.4972222222222222 0.4618055555555556 0.3951388888888889 0.3013888888888889 0.2486111111111111 0.2333333333333333 0.23194444444444445 0.23194444444444445 0.23194444444444445 0.23194444444444445 0.23194444444444445 0.23125 0.23125 0.23125 0.23125 0.23125 0.27291666666666664 0.37916666666666665 0.5215277777777778 0.6444444444444445 0.7201388888888889 0.7222222222222222 0.7222222222222222 0.7222222222222222 0.7236111111111111 0.7236111111111111 0.7236111111111111 0.7236111111111111 0.7243055555555555 0.7597222222222222 0.8222222222222222 0.8298611111111112 0.8277777777777777 0.825,0.837037037037037 0.7805555555555556 0.6509259259259259 0.5064814814814815 0.3379629629629629 0.26388888888888884 0.2435185185185185 0.2416666666666667 0.2416666666666667 0.2416666666666667 0.2416666666666667 0.2416666666666667 0.2416666666666667 0.2416666666666667 0.2416666666666667 0.2416666666666667 0.2416666666666667 0.225 0.1953703703703704 0.17407407407407405 0.16666666666666666 0.1620370370370371 0.1611111111111111 0.1611111111111111 0.1611111111111111 0.1611111111111111 0.1611111111111111 0.1611111111111111 0.1611111111111111 0.1611111111111111 0.16296296296296298 0.16296296296296298 0.16574074074074074 0.16759259259259265 0.16759259259259265,485.2999999999884 505.2999999999884 525.2999999999884 545.2999999999884 565.2999999999884 585.2999999999884 605.2999999999884 625.2999999999884 645.2999999999884 665.2999999999884 685.2999999999884 705.2999999999884 725.2999999999884 745.2999999999884 765.2999999999884 785.2999999999884 805.2999999999884 825.2999999999884 845.2999999999884 865.2999999999884 885.2999999999884 905.2999999999884 925.2999999999884 945.2999999999884 965.2999999999884 985.2999999999884 1005.2999999999884 1025.2999999999884 1045.2999999999884 1065.2999999999884 1085.2999999999884 1105.2999999999884 1125.2999999999884 1145.2999999999886 1165.2999999999886
cb_03,39.0,enc_trial,stim,response,Miami trip,873.4000000357628,enc_trial,1.0,39.0,t_s_21_2,travel_shared,fold-b,umbrella,3.0,competing,close,paired,t_s_21_2.jpg,,travel-b1,Iceland trip,Miami trip,sub-28,0.0,0.0,1.0,1.0,0.4965277777777778 0.5333333333333333 0.6284722222222222 0.7444444444444445 0.8347222222222223 0.8611111111111112 0.8631944444444445 0.8631944444444445 0.8631944444444445 0.8631944444444445 0.8631944444444445 0.8631944444444445 0.8611111111111112 0.8583333333333333 0.8590277777777777 0.8597222222222223 0.8583333333333333 0.8548611111111111 0.8527777777777777,0.8101851851851851 0.7435185185185185 0.5851851851851853 0.4157407407407408 0.2888888888888889 0.25277777777777777 0.2490740740740741 0.2490740740740741 0.2490740740740741 0.2490740740740741 0.2490740740740741 0.2490740740740741 0.24629629629629635 0.2388888888888889 0.21851851851851856 0.1805555555555556 0.1527777777777778 0.13703703703703707 0.13055555555555556,491.3999999999942 511.3999999999942 531.3999999999942 551.3999999999942 571.3999999999943 591.3999999999943 611.3999999999943 631.3999999999943 651.3999999999943 671.3999999999943 691.3999999999942 711.3999999999942 731.3999999999942 751.3999999999942 771.3999999999942 791.3999999999942 811.3999999999942 831.3999999999942 851.3999999999942
cb_03,40.0,enc_trial,stim,response,Iceland trip,1086.9000000357628,enc_trial,1.0,40.0,t_s_10_1,travel_shared,fold-c,luggage lock,3.0,competing,far,paired,t_s_10_1.jpg,,travel-b1,Iceland trip,Miami trip,sub-28,1.0,1.0,0.0,0.0,0.5027777777777778 0.5055555555555555 0.5076388888888889 0.5097222222222222 0.51875 0.5229166666666667 0.5222222222222223 0.5048611111111111 0.4736111111111111 0.4243055555555556 0.3625 0.30416666666666664 0.26875 0.2361111111111111 0.19583333333333333 0.18055555555555555 0.17291666666666666 0.17291666666666666 0.17222222222222222 0.16944444444444445 0.16805555555555554 0.16597222222222222 0.15069444444444444 0.1326388888888889 0.11666666666666667 0.11597222222222225 0.11597222222222225 0.11527777777777776,0.8287037037037037 0.8092592592592592 0.7824074074074074 0.7435185185185185 0.6935185185185185 0.6611111111111111 0.6296296296296297 0.5703703703703704 0.5092592592592593 0.4481481481481482 0.38796296296296295 0.3305555555555556 0.2962962962962963 0.2490740740740741 0.2203703703703704 0.2138888888888889 0.20925925925925928 0.20925925925925928 0.20925925925925928 0.20925925925925928 0.20925925925925928 0.20925925925925928 0.21018518518518514 0.2055555555555556 0.19351851851851853 0.1907407407407408 0.1907407407407408 0.1907407407407408,521.6000000000058 541.6000000000058 561.6000000000058 581.6000000000057 601.6000000000057 621.6000000000057 641.6000000000057 661.6000000000057 681.6000000000057 701.6000000000058 721.6000000000058 741.6000000000058 761.6000000000058 781.6000000000058 801.6000000000058 821.6000000000058 841.6000000000058 861.6000000000058 881.6000000000058 901.6000000000058 921.6000000000058 941.6000000000058 961.6000000000058 981.6000000000058 1001.6000000000058 1021.6000000000058 1041.6000000000058 1061.6000000000058
cb_03,41.0,enc_trial,stim,response,Fine Arts students,1782.0,enc_trial,2.0,1.0,s_a_09_1,student_art,fold-e,picture frame,3.0,unique,close,paired,s_a_09_1.jpg,art,student-b1,STEM students,Fine Arts students,sub-28,1.0,1.0,1.0,1.0,0.4972222222222222 0.5006944444444444 0.5145833333333333 0.5319444444444444 0.5541666666666667 0.5631944444444444 0.5680555555555555 0.5701388888888889 0.5701388888888889 0.5701388888888889 0.5701388888888889 0.5694444444444444 0.5652777777777778 0.5541666666666667 0.5333333333333333 0.5180555555555556 0.5055555555555555 0.4875 0.4743055555555555 0.4611111111111112 0.4513888888888889 0.44027777777777777 0.43472222222222223 0.43125 0.425 0.4166666666666667 0.4069444444444445 0.3923611111111111 0.3784722222222222 0.3659722222222222 0.3576388888888889 0.3506944444444444 0.34444444444444444 0.3347222222222222 0.3201388888888889 0.31319444444444444 0.31319444444444444 0.3243055555555556 0.3368055555555556 0.35208333333333336 0.3798611111111111 0.4569444444444444 0.5444444444444444 0.6131944444444445 0.68125 0.6972222222222222 0.7 0.7055555555555556 0.7243055555555555 0.7409722222222223 0.7534722222222222 0.7611111111111111 0.7708333333333334 0.7888888888888889 0.8263888888888888 0.8513888888888889 0.8597222222222223 0.8618055555555556 0.8645833333333334 0.8680555555555556 0.8708333333333333 0.8722222222222222 0.8729166666666667,0.8101851851851851 0.7907407407407407 0.7425925925925926 0.6907407407407408 0.624074074074074 0.5962962962962963 0.5814814814814815 0.5768518518518518 0.5768518518518518 0.5768518518518518 0.5768518518518518 0.575 0.5648148148148149 0.5453703703703704 0.5055555555555555 0.47592592592592603 0.4490740740740741 0.4175925925925926 0.3972222222222223 0.3796296296296297 0.3666666666666667 0.35462962962962963 0.3490740740740741 0.3453703703703703 0.3388888888888889 0.33333333333333337 0.3277777777777777 0.3212962962962963 0.31666666666666665 0.3111111111111111 0.3064814814814815 0.3018518518518518 0.2972222222222223 0.2898148148148149 0.2759259259259259 0.2629629629629629 0.2425925925925925 0.21018518518518514 0.1907407407407408 0.17407407407407405 0.1509259259259259 0.11759259259259258 0.10462962962962964 0.10277777777777776 0.10648148148148152 0.11203703703703703 0.1148148148148148 0.12129629629629635 0.13888888888888884 0.1518518518518519 0.16388888888888886 0.17129629629629628 0.1787037037037037 0.18611111111111112 0.1953703703703704 0.1972222222222222 0.1972222222222222 0.1962962962962963 0.19166666666666665 0.18518518518518529 0.18148148148148147 0.18148148148148147 0.18148148148148147,509.5 529.5 549.5 569.5 589.5 609.5 629.5 649.5 669.5 689.5 709.5 729.5 749.5 769.5 789.5 809.5 829.5 849.5 869.5 889.5 909.5 929.5 949.5 969.5 989.5 1009.5 1029.5 1049.5 1069.5 1089.5 1109.5 1129.5 1149.5 1169.5 1189.5 1209.5 1229.5 1249.5 1269.5 1289.5 1309.5 1329.5 1349.5 1369.5 1389.5 1409.5 1429.5 1449.5 1469.5 1489.5 1509.5 1529.5 1549.5 1569.5 1589.5 1609.5 1629.5 1649.5 1669.5 1689.5 1709.5 1729.5 1749.5
