Current Spreadsheet,Trial Number,Display,Screen,Response Type,Response,Reaction Time,display,block,block_trial,stimulus_id,expected_goal,fold,stimulus_name,c_group,condition,within_block_dist,paired_status,stimulus_path,expected_location,block_split,respStim_1,respStim_2,sub_label,acc,both_enc_acc,assoc_stim1_acc,assoc_stim2_acc,x_pos,y_pos,time_trajectories
cb_05,1.0,enc_trial,stim,response,Iceland trip,3362.4000000476954,enc_trial,1.0,1.0,t_s_08_1,travel_shared,fold-a,hand lotion,5.0,competing,far,paired,t_s_08_1.jpg,,travel-b1,Iceland trip,Miami trip,sub-87,1.0,1.0,0.0,0.0,0.4990234375 0.4990234375 0.4990234375 0.4990234375 0.4990234375 0.4990234375 0.4990234375 0.4990234375 0.4990234375 0.4990234375 0.4990234375 0.4990234375 0.4990234375 0.5009765625 0.5048828125 0.515625 0.517578125 0.5224609375 0.5263671875 0.5283203125 0.5283203125 0.5283203125 0.5283203125 0.5283203125 0.5322265625 0.5546875 0.568359375 0.5869140625 0.6064453125 0.634765625 0.7421875 0.7744140625 0.7939453125 0.8017578125 0.802734375 0.802734375 0.802734375 0.802734375 0.806640625 0.8173828125 0.8564453125 0.8701171875 0.8828125 0.8935546875 0.9052734375 0.9443359375 0.9736328125 0.994140625 1.0087890625 1.0126953125 1.013671875 1.013671875 1.013671875 1.013671875 1.013671875 0.9609375 0.95703125 0.95703125 0.9521484375 0.9482421875 0.9462890625 0.9462890625 0.9453125 0.9404296875 0.9365234375 0.9296875 0.9267578125 0.9248046875 0.923828125 0.9228515625 0.9228515625 0.9228515625 0.9228515625 0.9228515625 0.9228515625 0.921875 0.919921875 0.919921875 0.91796875 0.9150390625 0.896484375 0.8681640625 0.828125 0.7900390625 0.7646484375 0.75 0.75 0.7666015625 0.7802734375 0.8232421875 0.8701171875 0.884765625 0.888671875 0.888671875 0.888671875 0.87890625 0.8515625 0.794921875 0.732421875 0.6552734375 0.5859375 0.5703125 0.5615234375 0.55078125 0.533203125 0.47265625 0.4375 0.38671875 0.359375 0.3388671875 0.3271484375 0.3271484375 0.3271484375 0.3359375 0.3603515625 0.4599609375 0.525390625 0.5478515625 0.5556640625 0.5556640625 0.5556640625 0.5556640625 0.5556640625 0.5556640625 0.5556640625 0.5556640625 0.5556640625 0.5556640625 0.5556640625 0.5556640625 0.548828125 0.5380859375 0.5205078125 0.4951171875 0.4658203125 0.4248046875 0.421875 0.4208984375 0.4208984375 0.4208984375 0.4189453125 0.4091796875 0.390625 0.3583984375 0.3076171875 0.2197265625 0.189453125 0.1669921875 0.150390625 0.1337890625 0.12890625,0.8411458333333334 0.8411458333333334 0.8411458333333334 0.8411458333333334 0.8411458333333334 0.8411458333333334 0.8411458333333334 0.8411458333333334 0.8411458333333334 0.8411458333333334 0.8411458333333334 0.8411458333333334 0.83984375 0.8359375 0.83203125 0.8151041666666666 0.8098958333333334 0.796875 0.7786458333333334 0.7578125 0.7005208333333333 0.67578125 0.6536458333333333 0.6263020833333333 0.5911458333333333 0.5182291666666667 0.4908854166666666 0.4674479166666666 0.44921875 0.42578125 0.35026041666666663 0.32942708333333337 0.31510416666666663 0.30859375 0.30729166666666663 0.30729166666666663 0.30598958333333337 0.29947916666666663 0.28515625 0.26041666666666663 0.1953125 0.17838541666666666 0.16796875 0.16015625 0.15104166666666666 0.11848958333333336 0.09114583333333336 0.07161458333333337 0.06119791666666662 0.05859375 0.05859375 0.05729166666666662 0.05729166666666662 0.05729166666666662 0.05729166666666662 0.05729166666666662 0.05989583333333338 0.05989583333333338 0.06119791666666662 0.06380208333333337 0.06510416666666663 0.06640625 0.06901041666666663 0.078125 0.0859375 0.09375 0.09635416666666664 0.09765625 0.10026041666666664 0.10026041666666664 0.10026041666666664 0.10026041666666664 0.10026041666666664 0.10026041666666664 0.10026041666666664 0.10026041666666664 0.1015625 0.1015625 0.10286458333333336 0.10286458333333336 0.10546875 0.10807291666666664 0.10807291666666664 0.10807291666666664 0.10807291666666664 0.10677083333333336 0.10677083333333336 0.10026041666666664 0.09765625 0.09114583333333336 0.08854166666666663 0.08854166666666663 0.08854166666666663 0.08854166666666663 0.08854166666666663 0.09505208333333336 0.10286458333333336 0.11588541666666664 0.12109375 0.12109375 0.12109375 0.12109375 0.12109375 0.12109375 0.12109375 0.12630208333333334 0.12630208333333334 0.12630208333333334 0.12630208333333334 0.12630208333333334 0.12760416666666666 0.12760416666666666 0.12890625 0.13020833333333334 0.13151041666666666 0.14322916666666666 0.15234375 0.15885416666666666 0.16015625 0.16015625 0.16015625 0.16015625 0.16015625 0.16015625 0.16015625 0.16015625 0.16015625 0.16015625 0.16145833333333334 0.1640625 0.16796875 0.16927083333333334 0.16927083333333334 0.16927083333333334 0.16927083333333334 0.16796875 0.16796875 0.16796875 0.16796875 0.16796875 0.16666666666666666 0.16536458333333334 0.16536458333333334 0.16536458333333334 0.16536458333333334 0.16536458333333334 0.16536458333333334 0.1640625 0.16145833333333334 0.15885416666666666 0.15885416666666666,0.0 20.0 40.0 60.0 80.0 100.0 120.0 140.0 160.0 180.0 200.0 220.0 240.0 260.0 280.0 300.0 320.0 340.0 360.0 380.0 400.0 420.0 440.0 460.0 480.0 500.0 520.0 540.0 560.0 580.0 600.0 620.0 640.0 660.0 680.0 700.0 720.0 740.0 760.0 780.0 800.0 820.0 840.0 860.0 880.0 900.0 920.0 940.0 960.0 980.0 1000.0 1020.0 1040.0 1060.0 1080.0 1100.0 1120.0 1140.0 1160.0 1180.0 1200.0 1220.0 1240.0 1260.0 1280.0 1300.0 1320.0 1340.0 1360.0 1380.0 1400.0 1420.0 1440.0 1460.0 1480.0 1500.0 1520.0 1540.0 1560.0 1580.0 1600.0 1620.0 1640.0 1660.0 1680.0 1700.0 1720.0 1740.0 1760.0 1780.0 1800.0 1820.0 1840.0 1860.0 1880.0 1900.0 1920.0 1940.0 1960.0 1980.0 2000.0 2020.0 2040.0 2060.0 2080.0 2100.0 2120.0 2140.0 2160.0 2180.0 2200.0 2220.0 2240.0 2260.0 2280.0 2300.0 2320.0 2340.0 2360.0 2380.0 2400.0 2420.0 2440.0 2460.0 2480.0 2500.0 2520.0 2540.0 2560.0 2580.0 2600.0 2620.0 2640.0 2660.0 2680.0 2700.0 2720.0 2740.0 2760.0 2780.0 2800.0 2820.0 2840.0 2860.0 2880.0 2900.0 2920.0 2940.0 2960.0 2980.0 3000.0
cb_05,2.0,enc_trial,stim,response,Iceland trip,2936.800000011921,enc_trial,1.0,2.0,t_m_04_1,travel_Miami,fold-e,UV jacket,5.0,unique,far,paired,t_m_04_1.jpg,Miami,travel-b1,Iceland trip,Miami trip,sub-87,0.0,0.0,0.0,0.0,0.5009765625 0.501953125 0.501953125 0.501953125 0.5029296875 0.5029296875 0.5029296875 0.5029296875 0.50390625 0.50390625 0.50390625 0.50390625 0.50390625 0.50390625 0.50390625 0.50390625 0.50390625 0.50390625 0.50390625 0.50390625 0.5068359375 0.51171875 0.515625 0.521484375 0.5263671875 0.5390625 0.5458984375 0.55859375 0.568359375 0.5830078125 0.662109375 0.7392578125 0.822265625 0.8994140625 0.96484375 1.05859375 1.078125 1.080078125 1.080078125 1.0732421875 1.046875 1.0322265625 1.015625 1.0 0.9892578125 0.984375 0.984375 0.984375 0.9833984375 0.982421875 0.96875 0.9541015625 0.935546875 0.916015625 0.8974609375 0.8740234375 0.8740234375 0.8740234375 0.8740234375 0.8740234375 0.8740234375 0.8740234375 0.8740234375 0.8740234375 0.8740234375 0.8740234375 0.8740234375 0.8740234375 0.8740234375 0.873046875 0.8720703125 0.87109375 0.8701171875 0.869140625 0.869140625 0.869140625 0.869140625 0.869140625 0.869140625 0.869140625 0.869140625 0.869140625 0.869140625 0.859375 0.828125 0.640625 0.4580078125 0.2578125 0.0029296875 -0.1162109375 -0.1669921875 -0.1669921875 -0.1611328125 -0.1416015625 -0.115234375 -0.0791015625 -0.0673828125 -0.0546875 -0.041015625 -0.03515625 -0.0146484375 0.00390625 0.0283203125 0.0576171875 0.0908203125 0.150390625 0.1728515625 0.1865234375 0.1904296875 0.1904296875 0.1904296875 0.1904296875 0.1904296875 0.1904296875 0.1904296875 0.1904296875 0.1904296875 0.1904296875 0.1904296875 0.1904296875 0.1875 0.1845703125 0.1826171875 0.181640625 0.1806640625 0.1806640625 0.1806640625 0.1806640625 0.1806640625 0.1806640625 0.1806640625 0.1806640625 0.177734375 0.1689453125 0.1572265625 0.1396484375 0.1357421875,0.828125 0.828125 0.828125 0.828125 0.8294270833333334 0.8294270833333334 0.8294270833333334 0.8294270833333334 0.8294270833333334 0.8294270833333334 0.8294270833333334 0.8294270833333334 0.8294270833333334 0.8294270833333334 0.8294270833333334 0.8294270833333334 0.8294270833333334 0.8294270833333334 0.8294270833333334 0.8294270833333334 0.8294270833333334 0.8268229166666666 0.8177083333333334 0.80078125 0.7760416666666666 0.6888020833333333 0.6236979166666667 0.51171875 0.43359375 0.35677083333333337 0.2044270833333333 0.12890625 0.07161458333333337 0.04036458333333337 0.02864583333333337 0.02213541666666663 0.02083333333333337 0.0234375 0.02994791666666663 0.04036458333333337 0.05729166666666662 0.06119791666666662 0.06510416666666663 0.06640625 0.06770833333333337 0.06770833333333337 0.06770833333333337 0.06770833333333337 0.06770833333333337 0.06770833333333337 0.0703125 0.07421875 0.078125 0.08463541666666663 0.08854166666666663 0.09114583333333336 0.09114583333333336 0.09114583333333336 0.09114583333333336 0.09114583333333336 0.09114583333333336 0.09114583333333336 0.09114583333333336 0.09114583333333336 0.09114583333333336 0.09114583333333336 0.09114583333333336 0.09114583333333336 0.09114583333333336 0.09375 0.1015625 0.10677083333333336 0.10807291666666664 0.109375 0.109375 0.109375 0.109375 0.109375 0.109375 0.109375 0.109375 0.109375 0.109375 0.11067708333333336 0.10807291666666664 0.10677083333333336 0.10677083333333336 0.10677083333333336 0.10677083333333336 0.10677083333333336 0.10677083333333336 0.10677083333333336 0.109375 0.11588541666666664 0.11979166666666664 0.12760416666666666 0.13151041666666666 0.13541666666666666 0.13671875 0.13802083333333334 0.13802083333333334 0.13802083333333334 0.13541666666666666 0.13151041666666666 0.12890625 0.1171875 0.11328125 0.11067708333333336 0.109375 0.109375 0.109375 0.109375 0.109375 0.109375 0.109375 0.109375 0.109375 0.109375 0.109375 0.109375 0.109375 0.109375 0.109375 0.109375 0.109375 0.109375 0.109375 0.109375 0.109375 0.109375 0.109375 0.109375 0.109375 0.10677083333333336 0.10416666666666664 0.10286458333333336 0.10286458333333336,0.0 20.0 40.0 60.0 80.0 100.0 120.0 140.0 160.0 180.0 200.0 220.0 240.0 260.0 280.0 300.0 320.0 340.0 360.0 380.0 400.0 420.0 440.0 460.0 480.0 500.0 520.0 540.0 560.0 580.0 600.0 620.0 640.0 660.0 680.0 700.0 720.0 740.0 760.0 780.0 800.0 820.0 840.0 860.0 880.0 900.0 920.0 940.0 960.0 980.0 1000.0 1020.0 1040.0 1060.0 1080.0 1100.0 1120.0 1140.0 1160.0 1180.0 1200.0 1220.0 1240.0 1260.0 1280.0 1300.0 1320.0 1340.0 1360.0 1380.0 1400.0 1420.0 1440.0 1460.0 1480.0 1500.0 1520.0 1540.0 1560.0 1580.0 1600.0 1620.0 1640.0 1660.0 1680.0 1700.0 1720.0 1740.0 1760.0 1780.0 1800.0 1820.0 1840.0 1860.0 1880.0 1900.0 1920.0 1940.0 1960.0 1980.0 2000.0 2020.0 2040.0 2060.0 2080.0 2100.0 2120.0 2140.0 2160.0 2180.0 2200.0 2220.0 2240.0 2260.0 2280.0 2300.0 2320.0 2340.0 2360.0 2380.0 2400.0 2420.0 2440.0 2460.0 2480.0 2500.0 2520.0 2540.0 2560.0 2580.0 2600.0 2620.0 2640.0 2660.0 2680.0 2700.0 2720.0
cb_05,3.0,enc_trial,stim,response,Miami trip,1411.6000000357744,enc_trial,1.0,3.0,t_s_20_1,travel_shared,fold-a,travel pill case,5.0,competing,far,paired,t_s_20_1.jpg,,travel-b1,Iceland trip,Miami trip,sub-87,0.0,0.0,1.0,1.0,0.509765625 0.509765625 0.509765625 0.5087890625 0.5087890625 0.5078125 0.5078125 0.5078125 0.5078125 0.5078125 0.5078125 0.5078125 0.5078125 0.5078125 0.5078125 0.5087890625 0.509765625 0.509765625 0.509765625 0.509765625 0.509765625 0.509765625 0.509765625 0.509765625 0.509765625 0.5224609375 0.5361328125 0.552734375 0.57421875 0.599609375 0.669921875 0.69140625 0.701171875 0.703125 0.703125 0.703125 0.7041015625 0.70703125 0.71484375 0.7255859375 0.7607421875 0.78125 0.8017578125 0.8173828125 0.8251953125 0.828125 0.828125 0.828125 0.828125 0.82421875 0.818359375 0.8173828125 0.8173828125 0.8173828125 0.8173828125 0.8173828125 0.8173828125 0.8173828125 0.8173828125 0.8173828125 0.82421875 0.8310546875 0.837890625 0.8427734375 0.84375 0.84375 0.84375 0.84375 0.84375 0.84375 0.8447265625,0.83203125 0.83203125 0.83203125 0.83203125 0.83203125 0.8307291666666666 0.8307291666666666 0.8307291666666666 0.8307291666666666 0.8307291666666666 0.8307291666666666 0.8307291666666666 0.8307291666666666 0.8307291666666666 0.8307291666666666 0.8307291666666666 0.8307291666666666 0.8307291666666666 0.8307291666666666 0.8307291666666666 0.8307291666666666 0.8307291666666666 0.8307291666666666 0.8307291666666666 0.8307291666666666 0.81640625 0.8033854166666666 0.78515625 0.7630208333333334 0.7369791666666667 0.6536458333333333 0.6158854166666667 0.5872395833333333 0.5611979166666667 0.53515625 0.4674479166666666 0.4322916666666666 0.40234375 0.37630208333333337 0.35286458333333337 0.2890625 0.26041666666666663 0.2356770833333333 0.2200520833333333 0.2122395833333333 0.20963541666666666 0.2083333333333333 0.20572916666666666 0.2005208333333333 0.1953125 0.19140625 0.19140625 0.19140625 0.19140625 0.19140625 0.19140625 0.19140625 0.19140625 0.19140625 0.19140625 0.18359375 0.17838541666666666 0.17447916666666666 0.171875 0.17057291666666666 0.17057291666666666 0.17057291666666666 0.17057291666666666 0.17057291666666666 0.17057291666666666 0.17057291666666666,0.0 20.0 40.0 60.0 80.0 100.0 120.0 140.0 160.0 180.0 200.0 220.0 240.0 260.0 280.0 300.0 320.0 340.0 360.0 380.0 400.0 420.0 440.0 460.0 480.0 500.0 520.0 540.0 560.0 580.0 600.0 620.0 640.0 660.0 680.0 700.0 720.0 740.0 760.0 780.0 800.0 820.0 840.0 860.0 880.0 900.0 920.0 940.0 960.0 980.0 1000.0 1020.0 1040.0 1060.0 1080.0 1100.0 1120.0 1140.0 1160.0 1180.0 1200.0 1220.0 1240.0 1260.0 1280.0 1300.0 1320.0 1340.0 1360.0 1380.0 1400.0
cb_05,4.0,enc_trial,stim,response,Miami trip,1366.7000000000114,enc_trial,1.0,4.0,t_m_20_2,travel_Miami,fold-e,inflatable beachball,5.0,unique,far,paired,t_m_20_2.jpg,Miami,travel-b1,Iceland trip,Miami trip,sub-87,1.0,1.0,1.0,1.0,0.5107421875 0.5166015625 0.5244140625 0.533203125 0.544921875 0.560546875 0.5927734375 0.6083984375 0.6259765625 0.6455078125 0.6708984375 0.7119140625 0.7353515625 0.763671875 0.7919921875 0.8125 0.82421875 0.82421875 0.82421875 0.82421875 0.82421875 0.82421875 0.82421875 0.82421875 0.82421875 0.8203125 0.8125 0.8076171875 0.8017578125 0.7939453125 0.7861328125 0.7861328125 0.7861328125 0.7861328125 0.7861328125 0.7861328125 0.7861328125 0.7861328125 0.7861328125 0.7861328125 0.7861328125 0.7861328125 0.787109375 0.79296875 0.8056640625 0.826171875 0.826171875 0.828125 0.830078125 0.8310546875 0.833984375 0.8349609375 0.8349609375,0.81640625 0.8125 0.8059895833333334 0.7994791666666666 0.79296875 0.7799479166666666 0.73828125 0.7083333333333333 0.6614583333333333 0.5950520833333333 0.515625 0.33333333333333337 0.26953125 0.20703125 0.15364583333333334 0.11848958333333336 0.09505208333333336 0.09375 0.09375 0.09375 0.09375 0.09375 0.09375 0.09505208333333336 0.10416666666666664 0.1171875 0.13802083333333334 0.1484375 0.16015625 0.17317708333333334 0.1848958333333333 0.1848958333333333 0.1848958333333333 0.1848958333333333 0.1848958333333333 0.1848958333333333 0.1848958333333333 0.1848958333333333 0.1848958333333333 0.1848958333333333 0.1848958333333333 0.1848958333333333 0.18619791666666666 0.1875 0.1875 0.18229166666666666 0.1809895833333333 0.1796875 0.17578125 0.17447916666666666 0.16276041666666666 0.16015625 0.15885416666666666,233.40000000002328 253.40000000002328 273.4000000000233 293.4000000000233 313.4000000000233 333.4000000000233 353.40000000002334 373.40000000002334 393.40000000002334 413.40000000002334 433.40000000002334 453.40000000002334 473.40000000002334 493.40000000002334 513.4000000000234 533.4000000000234 553.4000000000234 573.4000000000233 593.4000000000233 613.4000000000233 633.4000000000233 653.4000000000233 673.4000000000233 693.4000000000232 713.4000000000232 733.4000000000232 753.4000000000232 773.4000000000232 793.4000000000232 813.4000000000232 833.4000000000232 853.4000000000232 873.4000000000232 893.4000000000232 913.4000000000232 933.4000000000232 953.4000000000232 973.4000000000232 993.4000000000232 1013.4000000000232 1033.4000000000233 1053.4000000000233 1073.4000000000233 1093.4000000000233 1113.4000000000233 1133.4000000000233 1153.4000000000233 1173.4000000000233 1193.4000000000233 1213.4000000000233 1233.4000000000233 1253.4000000000233 1273.4000000000233
cb_05,5.0,enc_trial,stim,response,Iceland trip,2029.200000047684,enc_trial,1.0,5.0,t_i_15_1,travel_Iceland,fold-a-single,compass,5.0,unique,,single,t_i_15_1.jpg,Iceland,travel-b1,Iceland trip,Miami trip,sub-87,1.0,,1.0,,0.5126953125 0.515625 0.5205078125 0.5263671875 0.5322265625 0.5400390625 0.5439453125 0.55078125 0.5576171875 0.5654296875 0.5732421875 0.5791015625 0.587890625 0.6015625 0.6318359375 0.67578125 0.6943359375 0.7099609375 0.7236328125 0.732421875 0.7353515625 0.7353515625 0.736328125 0.736328125 0.736328125 0.736328125 0.7412109375 0.751953125 0.7587890625 0.76171875 0.7626953125 0.763671875 0.7646484375 0.7666015625 0.7734375 0.7890625 0.7998046875 0.8046875 0.806640625 0.806640625 0.8076171875 0.8134765625 0.81640625 0.8232421875 0.8369140625 0.8583984375 0.8623046875 0.86328125 0.86328125 0.86328125 0.86328125 0.86328125 0.86328125 0.861328125 0.85546875 0.81640625 0.7646484375 0.6669921875 0.5419921875 0.4208984375 0.2412109375 0.203125 0.1904296875 0.1884765625 0.1884765625 0.185546875 0.177734375 0.162109375 0.1455078125 0.126953125 0.1005859375 0.0908203125 0.08984375 0.08984375 0.08984375 0.08984375 0.091796875 0.0947265625 0.095703125,0.8411458333333334 0.8385416666666666 0.8307291666666666 0.8216145833333334 0.80078125 0.7604166666666666 0.7291666666666667 0.67578125 0.6158854166666667 0.5638020833333333 0.5026041666666667 0.48828125 0.4700520833333334 0.4479166666666666 0.40625 0.3515625 0.33072916666666663 0.30989583333333337 0.29557291666666663 0.28515625 0.27864583333333337 0.27864583333333337 0.27734375 0.27734375 0.27734375 0.27734375 0.27604166666666663 0.27604166666666663 0.27473958333333337 0.27473958333333337 0.27473958333333337 0.27213541666666663 0.26822916666666663 0.26302083333333337 0.2473958333333333 0.22526041666666666 0.21354166666666666 0.20572916666666666 0.20182291666666666 0.2005208333333333 0.19921875 0.18619791666666666 0.18229166666666666 0.17578125 0.16145833333333334 0.14973958333333334 0.14713541666666666 0.14713541666666666 0.14713541666666666 0.14713541666666666 0.14713541666666666 0.14713541666666666 0.14713541666666666 0.14713541666666666 0.14713541666666666 0.14713541666666666 0.14713541666666666 0.1484375 0.15104166666666666 0.15104166666666666 0.15104166666666666 0.14973958333333334 0.1484375 0.14713541666666666 0.14713541666666666 0.14713541666666666 0.14713541666666666 0.14713541666666666 0.14713541666666666 0.14713541666666666 0.15104166666666666 0.15104166666666666 0.15104166666666666 0.15104166666666666 0.15104166666666666 0.15104166666666666 0.15104166666666666 0.15104166666666666 0.15104166666666666,433.2999999999884 453.2999999999884 473.2999999999884 493.2999999999884 513.2999999999884 533.2999999999884 553.2999999999884 573.2999999999884 593.2999999999884 613.2999999999884 633.2999999999884 653.2999999999884 673.2999999999884 693.2999999999884 713.2999999999884 733.2999999999884 753.2999999999884 773.2999999999884 793.2999999999884 813.2999999999884 833.2999999999884 853.2999999999884 873.2999999999884 893.2999999999884 913.2999999999884 933.2999999999884 953.2999999999884 973.2999999999884 993.2999999999884 1013.2999999999884 1033.2999999999884 1053.2999999999884 1073.2999999999884 1093.2999999999884 1113.2999999999884 1133.2999999999886 1153.2999999999886 1173.2999999999886 1193.2999999999886 1213.2999999999886 1233.2999999999886 1253.2999999999886 1273.2999999999886 1293.2999999999886 1313.2999999999886 1333.2999999999886 1353.2999999999886 1373.2999999999886 1393.2999999999884 1413.2999999999884 1433.2999999999884 1453.2999999999884 1473.2999999999884 1493.2999999999884 1513.2999999999884 1533.2999999999884 1553.2999999999884 1573.2999999999884 1593.2999999999884 1613.2999999999884 1633.2999999999884 1653.2999999999884 1673.2999999999884 1693.2999999999884 1713.2999999999884 1733.2999999999884 1753.2999999999884 1773.2999999999884 1793.2999999999884 1813.2999999999884 1833.2999999999884 1853.2999999999884 1873.2999999999884 1893.2999999999884 1913.2999999999884 1933.2999999999884 1953.2999999999884 1973.2999999999884 1993.2999999999884
cb_05,6.0,enc_trial,stim,response,Miami trip,1242.5000000119326,enc_trial,1.0,6.0,t_m_02_1,travel_Miami,fold-a-single,t-shirt,5.0,unique,,single,t_m_02_1.jpg,Miami,travel-b1,Iceland trip,Miami trip,sub-87,1.0,,0.0,,0.501953125 0.5068359375 0.517578125 0.529296875 0.544921875 0.5615234375 0.591796875 0.6064453125 0.6142578125 0.6162109375 0.611328125 0.6015625 0.5966796875 0.595703125 0.5966796875 0.64453125 0.6953125 0.7470703125 0.787109375 0.8154296875 0.828125 0.828125 0.828125 0.828125 0.828125 0.828125 0.8291015625 0.83203125 0.841796875 0.857421875 0.875 0.8759765625 0.876953125 0.876953125 0.876953125 0.876953125 0.8740234375 0.873046875 0.87109375 0.869140625 0.8623046875 0.859375 0.859375 0.8583984375,0.7981770833333334 0.7916666666666666 0.7799479166666666 0.7643229166666666 0.7447916666666667 0.7200520833333333 0.6614583333333333 0.6158854166666667 0.5638020833333333 0.5208333333333333 0.453125 0.4127604166666666 0.39192708333333337 0.3697916666666666 0.34114583333333337 0.24609375 0.19791666666666666 0.16015625 0.1328125 0.11588541666666664 0.11067708333333336 0.11067708333333336 0.11067708333333336 0.11067708333333336 0.11067708333333336 0.11067708333333336 0.11067708333333336 0.109375 0.10286458333333336 0.09375 0.08463541666666663 0.08463541666666663 0.08463541666666663 0.08463541666666663 0.0859375 0.08723958333333337 0.08854166666666663 0.08854166666666663 0.09114583333333336 0.09244791666666664 0.09765625 0.09895833333333336 0.1015625 0.1015625,350.0 370.0 390.0 410.0 430.0 450.0 470.0 490.0 510.0 530.0 550.0 570.0 590.0 610.0 630.0 650.0 670.0 690.0 710.0 730.0 750.0 770.0 790.0 810.0 830.0 850.0 870.0 890.0 910.0 930.0 950.0 970.0 990.0 1010.0 1030.0 1050.0 1070.0 1090.0 1110.0 1130.0 1150.0 1170.0 1190.0 1210.0
cb_05,7.0,enc_trial,stim,response,Miami trip,1145.4000000357628,enc_trial,1.0,7.0,t_s_22_1,travel_shared,fold-a,belt,5.0,competing,far,paired,t_s_22_1.jpg,,travel-b1,Iceland trip,Miami trip,sub-87,1.0,1.0,1.0,0.0,0.5029296875 0.5029296875 0.505859375 0.5078125 0.5126953125 0.5205078125 0.541015625 0.55078125 0.5673828125 0.580078125 0.591796875 0.611328125 0.625 0.646484375 0.6728515625 0.7080078125 0.7822265625 0.822265625 0.8291015625 0.8359375 0.8388671875 0.8388671875 0.83984375 0.8408203125 0.841796875 0.841796875 0.84375 0.8466796875 0.8505859375 0.85546875,0.8268229166666666 0.8268229166666666 0.8268229166666666 0.8216145833333334 0.81640625 0.8059895833333334 0.7747395833333334 0.7565104166666666 0.7291666666666667 0.70703125 0.68359375 0.625 0.578125 0.5208333333333333 0.453125 0.3854166666666666 0.28255208333333337 0.2356770833333333 0.2265625 0.2200520833333333 0.21744791666666666 0.2122395833333333 0.20572916666666666 0.19921875 0.19401041666666666 0.19140625 0.17708333333333334 0.1640625 0.1484375 0.140625,383.2999999999884 403.2999999999884 423.2999999999884 443.2999999999884 463.2999999999884 483.2999999999884 503.2999999999884 523.2999999999884 543.2999999999884 563.2999999999884 583.2999999999884 603.2999999999884 623.2999999999884 643.2999999999884 663.2999999999884 683.2999999999884 703.2999999999884 723.2999999999884 743.2999999999884 763.2999999999884 783.2999999999884 803.2999999999884 823.2999999999884 843.2999999999884 863.2999999999884 883.2999999999884 903.2999999999884 923.2999999999884 943.2999999999884 963.2999999999884
cb_05,8.0,enc_trial,stim,response,Miami trip,2050.000000000058,enc_trial,1.0,8.0,t_s_10_1,travel_shared,fold-c,luggage lock,5.0,competing,close,paired,t_s_10_1.jpg,,travel-b1,Iceland trip,Miami trip,sub-87,0.0,0.0,0.0,1.0,0.5048828125 0.5107421875 0.51953125 0.5419921875 0.5537109375 0.6064453125 0.625 0.6328125 0.6533203125 0.6640625 0.6806640625 0.6875 0.693359375 0.697265625 0.7001953125 0.6953125 0.6845703125 0.6787109375 0.6572265625 0.646484375 0.6318359375 0.6279296875 0.6259765625 0.6259765625 0.625 0.646484375 0.681640625 0.716796875 0.7509765625 0.775390625 0.7939453125 0.794921875 0.794921875 0.794921875 0.7958984375 0.80078125 0.8046875 0.8095703125 0.810546875 0.810546875 0.810546875 0.810546875 0.810546875 0.810546875 0.810546875 0.810546875 0.810546875 0.810546875 0.810546875 0.810546875 0.810546875 0.810546875 0.810546875 0.810546875 0.810546875 0.8134765625 0.8203125 0.82421875 0.8330078125 0.8369140625 0.853515625 0.8564453125 0.8564453125 0.857421875 0.8583984375 0.8603515625 0.8623046875 0.8623046875 0.8623046875 0.8623046875 0.8623046875 0.8623046875 0.8623046875 0.8623046875 0.8623046875 0.8623046875 0.8623046875 0.8623046875 0.8623046875 0.8623046875 0.8623046875 0.8623046875 0.8623046875 0.8623046875 0.8623046875 0.8623046875 0.861328125 0.861328125,0.8138020833333334 0.8098958333333334 0.80078125 0.7786458333333334 0.76953125 0.7252604166666667 0.7096354166666667 0.7018229166666667 0.6809895833333333 0.6653645833333333 0.6380208333333333 0.6223958333333333 0.6028645833333333 0.58203125 0.5559895833333333 0.4791666666666666 0.4505208333333334 0.43880208333333337 0.41145833333333337 0.39973958333333337 0.3776041666666666 0.3697916666666666 0.36328125 0.35677083333333337 0.34765625 0.30338541666666663 0.26692708333333337 0.2434895833333333 0.2265625 0.22135416666666666 0.2200520833333333 0.2200520833333333 0.2200520833333333 0.2200520833333333 0.2200520833333333 0.2200520833333333 0.22265625 0.22526041666666666 0.22526041666666666 0.22526041666666666 0.22526041666666666 0.22526041666666666 0.22526041666666666 0.22526041666666666 0.22526041666666666 0.22526041666666666 0.22526041666666666 0.22526041666666666 0.22526041666666666 0.22526041666666666 0.22526041666666666 0.22526041666666666 0.22526041666666666 0.22526041666666666 0.22526041666666666 0.2200520833333333 0.2122395833333333 0.20703125 0.1966145833333333 0.19401041666666666 0.17447916666666666 0.17057291666666666 0.16927083333333334 0.16927083333333334 0.16796875 0.16145833333333334 0.15885416666666666 0.15885416666666666 0.15885416666666666 0.15755208333333334 0.15755208333333334 0.15755208333333334 0.15755208333333334 0.15755208333333334 0.15755208333333334 0.15755208333333334 0.15755208333333334 0.15755208333333334 0.15755208333333334 0.15755208333333334 0.15755208333333334 0.15755208333333334 0.15755208333333334 0.15755208333333334 0.15755208333333334 0.15755208333333334 0.15885416666666666 0.16015625,266.7999999999884 286.79999999998836 306.79999999998836 326.79999999998836 346.7999999999884 366.7999999999884 386.7999999999884 406.7999999999884 426.7999999999884 446.7999999999884 466.7999999999884 486.7999999999884 506.7999999999884 526.7999999999884 546.7999999999884 566.7999999999884 586.7999999999884 606.7999999999884 626.7999999999884 646.7999999999884 666.7999999999884 686.7999999999884 706.7999999999884 726.7999999999884 746.7999999999884 766.7999999999884 786.7999999999884 806.7999999999884 826.7999999999884 846.7999999999884 866.7999999999884 886.7999999999884 906.7999999999884 926.7999999999884 946.7999999999884 966.7999999999884 986.7999999999884 1006.7999999999884 1026.7999999999884 1046.7999999999884 1066.7999999999884 1086.7999999999884 1106.7999999999884 1126.7999999999886 1146.7999999999886 1166.7999999999886 1186.7999999999886 1206.7999999999886 1226.7999999999886 1246.7999999999886 1266.7999999999886 1286.7999999999886 1306.7999999999886 1326.7999999999886 1346.7999999999886 1366.7999999999886 1386.7999999999884 1406.7999999999884 1426.7999999999884 1446.7999999999884 1466.7999999999884 1486.7999999999884 1506.7999999999884 1526.7999999999884 1546.7999999999884 1566.7999999999884 1586.7999999999884 1606.7999999999884 1626.7999999999884 1646.7999999999884 1666.7999999999884 1686.7999999999884 1706.7999999999884 1726.7999999999884 1746.7999999999884 1766.7999999999884 1786.7999999999884 1806.7999999999884 1826.7999999999884 1846.7999999999884 1866.7999999999884 1886.7999999999884 1906.7999999999884 1926.7999999999884 1946.7999999999884 1966.7999999999884 1986.7999999999884 2006.7999999999884
cb_05,9.0,enc_trial,stim,response,Iceland trip,1576.1000000357744,enc_trial,1.0,9.0,t_i_09_1,travel_Iceland,fold-a-single,ear muffs,5.0,unique,,single,t_i_09_1.jpg,Iceland,travel-b1,Iceland trip,Miami trip,sub-87,1.0,,1.0,,0.5029296875 0.5029296875 0.5029296875 0.5029296875 0.5029296875 0.5029296875 0.5029296875 0.5029296875 0.5029296875 0.5029296875 0.5029296875 0.5029296875 0.5029296875 0.505859375 0.5146484375 0.5380859375 0.6484375 0.7294921875 0.8076171875 0.8857421875 0.9052734375 0.90625 0.9072265625 0.91015625 0.9111328125 0.9111328125 0.9130859375 0.9130859375 0.9130859375 0.9130859375 0.9130859375 0.9130859375 0.9130859375 0.9130859375 0.9111328125 0.90625 0.9013671875 0.9013671875 0.900390625 0.900390625 0.8994140625 0.89453125 0.88671875 0.8662109375 0.822265625 0.748046875 0.5361328125 0.421875 0.3134765625 0.1884765625 0.142578125 0.140625 0.140625 0.140625 0.140625 0.140625 0.140625 0.140625 0.140625 0.140625 0.140625 0.1396484375 0.138671875 0.138671875 0.13671875 0.13671875 0.1318359375 0.130859375 0.12890625 0.12890625 0.12890625,0.8359375 0.8359375 0.8359375 0.8359375 0.8359375 0.8359375 0.8359375 0.8359375 0.8359375 0.8359375 0.8359375 0.8359375 0.8359375 0.8359375 0.8255208333333334 0.7916666666666666 0.6171875 0.48828125 0.36328125 0.22916666666666666 0.15234375 0.12630208333333334 0.10546875 0.08854166666666663 0.07942708333333337 0.07291666666666663 0.05989583333333338 0.05729166666666662 0.05598958333333337 0.05598958333333337 0.05598958333333337 0.05598958333333337 0.05598958333333337 0.05598958333333337 0.05989583333333338 0.06510416666666663 0.0703125 0.07291666666666663 0.07421875 0.07942708333333337 0.08854166666666663 0.09244791666666664 0.09895833333333336 0.10546875 0.109375 0.11197916666666664 0.11067708333333336 0.10286458333333336 0.08463541666666663 0.05078125 0.03255208333333337 0.03125 0.03125 0.03125 0.03125 0.03125 0.03255208333333337 0.03515625 0.03515625 0.03645833333333337 0.04296875 0.04817708333333337 0.05078125 0.05338541666666663 0.05729166666666662 0.0625 0.08072916666666663 0.08854166666666663 0.09765625 0.11458333333333336 0.12890625,133.0 153.0 173.0 193.0 213.0 233.0 253.0 273.0 293.0 313.0 333.0 353.0 373.0 393.0 413.0 433.0 453.0 473.0 493.0 513.0 533.0 553.0 573.0 593.0 613.0 633.0 653.0 673.0 693.0 713.0 733.0 753.0 773.0 793.0 813.0 833.0 853.0 873.0 893.0 913.0 933.0 953.0 973.0 993.0 1013.0 1033.0 1053.0 1073.0 1093.0 1113.0 1133.0 1153.0 1173.0 1193.0 1213.0 1233.0 1253.0 1273.0 1293.0 1313.0 1333.0 1353.0 1373.0 1393.0 1413.0 1433.0 1453.0 1473.0 1493.0 1513.0 1533.0
cb_05,10.0,enc_trial,stim,response,Iceland trip,2031.9000000357626,enc_trial,1.0,10.0,t_s_21_1,travel_shared,fold-b-single,umbrella,5.0,competing,,single,t_s_21_1.jpg,,travel-b1,Iceland trip,Miami trip,sub-87,1.0,,1.0,,0.4853515625 0.4853515625 0.4853515625 0.4892578125 0.498046875 0.5390625 0.5703125 0.6103515625 0.654296875 0.732421875 0.8837890625 0.9599609375 1.0048828125 1.0185546875 1.0224609375 1.0234375 1.0234375 1.0244140625 1.0185546875 1.0029296875 0.958984375 0.935546875 0.9208984375 0.916015625 0.9150390625 0.9150390625 0.9150390625 0.9150390625 0.9150390625 0.9150390625 0.9130859375 0.9111328125 0.91015625 0.9091796875 0.908203125 0.90625 0.9052734375 0.904296875 0.904296875 0.90234375 0.87890625 0.84375 0.7548828125 0.6201171875 0.474609375 0.271484375 0.234375 0.2236328125 0.2236328125 0.2236328125 0.2236328125 0.2236328125 0.2236328125 0.2236328125 0.2236328125 0.2236328125 0.2236328125 0.2236328125 0.22265625 0.220703125 0.2197265625 0.2177734375 0.2158203125 0.2119140625 0.20703125 0.2001953125 0.19921875 0.19921875 0.1982421875 0.197265625 0.1962890625 0.1884765625 0.181640625 0.1728515625 0.1640625 0.1552734375 0.154296875 0.154296875 0.154296875 0.1533203125 0.15234375,0.7955729166666666 0.7890625 0.7721354166666666 0.7421875 0.6953125 0.5690104166666667 0.51171875 0.4518229166666666 0.3932291666666666 0.30078125 0.13411458333333334 0.06640625 0.02994791666666663 0.01692708333333337 0.014322916666666631 0.014322916666666631 0.014322916666666631 0.014322916666666631 0.02083333333333337 0.03255208333333337 0.0625 0.07421875 0.08072916666666663 0.08333333333333337 0.08463541666666663 0.08463541666666663 0.08463541666666663 0.08463541666666663 0.08463541666666663 0.08463541666666663 0.08984375 0.09375 0.09505208333333336 0.09765625 0.09765625 0.10026041666666664 0.10026041666666664 0.10026041666666664 0.10026041666666664 0.1015625 0.10807291666666664 0.11458333333333336 0.12109375 0.12369791666666664 0.12369791666666664 0.12369791666666664 0.12369791666666664 0.12369791666666664 0.12369791666666664 0.12369791666666664 0.125 0.125 0.125 0.125 0.125 0.125 0.125 0.125 0.125 0.125 0.125 0.125 0.125 0.125 0.125 0.12239583333333336 0.12239583333333336 0.12239583333333336 0.12239583333333336 0.12239583333333336 0.12239583333333336 0.12239583333333336 0.12239583333333336 0.125 0.12760416666666666 0.12890625 0.12890625 0.12890625 0.12890625 0.12890625 0.13020833333333334,416.90000000002334 436.90000000002334 456.90000000002334 476.90000000002334 496.90000000002334 516.9000000000234 536.9000000000234 556.9000000000234 576.9000000000233 596.9000000000233 616.9000000000233 636.9000000000233 656.9000000000233 676.9000000000233 696.9000000000232 716.9000000000232 736.9000000000232 756.9000000000232 776.9000000000232 796.9000000000232 816.9000000000232 836.9000000000232 856.9000000000232 876.9000000000232 896.9000000000232 916.9000000000232 936.9000000000232 956.9000000000232 976.9000000000232 996.9000000000232 1016.9000000000232 1036.9000000000233 1056.9000000000233 1076.9000000000233 1096.9000000000233 1116.9000000000233 1136.9000000000233 1156.9000000000233 1176.9000000000233 1196.9000000000233 1216.9000000000233 1236.9000000000233 1256.9000000000233 1276.9000000000233 1296.9000000000233 1316.9000000000233 1336.9000000000233 1356.9000000000233 1376.9000000000233 1396.9000000000233 1416.9000000000233 1436.9000000000233 1456.9000000000233 1476.9000000000233 1496.9000000000233 1516.9000000000233 1536.9000000000233 1556.9000000000233 1576.9000000000233 1596.9000000000233 1616.9000000000233 1636.9000000000233 1656.9000000000233 1676.9000000000233 1696.9000000000233 1716.9000000000233 1736.9000000000233 1756.9000000000233 1776.9000000000233 1796.9000000000233 1816.9000000000235 1836.9000000000235 1856.9000000000235 1876.9000000000235 1896.9000000000235 1916.9000000000235 1936.9000000000235 1956.9000000000235 1976.9000000000235 1996.9000000000235 2016.9000000000235
cb_05,11.0,enc_trial,stim,response,Miami trip,1200.2000000000694,enc_trial,1.0,11.0,t_s_14_1,travel_shared,fold-b-single,hand sanitizer,5.0,competing,,single,t_s_14_1.jpg,,travel-b1,Iceland trip,Miami trip,sub-87,1.0,,1.0,,0.5 0.513671875 0.546875 0.591796875 0.642578125 0.720703125 0.7490234375 0.7578125 0.7626953125 0.767578125 0.794921875 0.81640625 0.8330078125 0.8447265625 0.8505859375 0.8583984375 0.8623046875 0.8642578125 0.8642578125 0.8642578125 0.865234375 0.8671875 0.8701171875 0.873046875 0.873046875 0.8740234375 0.8740234375 0.8740234375,0.8177083333333334 0.8020833333333334 0.7604166666666666 0.7044270833333333 0.6419270833333333 0.5559895833333333 0.5299479166666667 0.5143229166666667 0.4934895833333334 0.4674479166666666 0.3697916666666666 0.30598958333333337 0.26822916666666663 0.2473958333333333 0.2356770833333333 0.22135416666666666 0.2161458333333333 0.21354166666666666 0.2122395833333333 0.2122395833333333 0.2109375 0.2083333333333333 0.203125 0.19791666666666666 0.19401041666666666 0.1888020833333333 0.18619791666666666 0.1848958333333333,616.7000000000116 636.7000000000116 656.7000000000116 676.7000000000116 696.7000000000116 716.7000000000116 736.7000000000116 756.7000000000116 776.7000000000116 796.7000000000116 816.7000000000116 836.7000000000116 856.7000000000116 876.7000000000116 896.7000000000116 916.7000000000116 936.7000000000116 956.7000000000116 976.7000000000116 996.7000000000116 1016.7000000000116 1036.7000000000116 1056.7000000000116 1076.7000000000116 1096.7000000000116 1116.7000000000116 1136.7000000000114 1156.7000000000114
cb_05,12.0,enc_trial,stim,response,Miami trip,1003.7000000476836,enc_trial,1.0,12.0,t_i_17_1,travel_Iceland,fold-e,binoculars,5.0,unique,far,paired,t_i_17_1.jpg,Iceland,travel-b1,Iceland trip,Miami trip,sub-87,0.0,0.0,1.0,1.0,0.5068359375 0.505859375 0.5068359375 0.509765625 0.5126953125 0.521484375 0.5322265625 0.5361328125 0.5390625 0.541015625 0.5419921875 0.5478515625 0.5546875 0.5615234375 0.572265625 0.583984375 0.642578125 0.681640625 0.7294921875 0.7724609375 0.8056640625 0.826171875 0.828125 0.8291015625 0.8291015625 0.8291015625 0.8310546875 0.83203125 0.83203125 0.83203125 0.83203125 0.83203125 0.83203125 0.8310546875 0.8310546875 0.8310546875 0.8310546875 0.83203125 0.8330078125 0.8349609375 0.83984375 0.841796875 0.841796875,0.8216145833333334 0.8111979166666666 0.7955729166666666 0.7786458333333334 0.7604166666666666 0.7278645833333333 0.69921875 0.6901041666666667 0.6848958333333333 0.6822916666666667 0.6796875 0.6640625 0.6471354166666667 0.6171875 0.5625 0.4830729166666666 0.23828125 0.1484375 0.07942708333333337 0.03385416666666663 0.01302083333333337 0.00651041666666663 0.01041666666666663 0.02213541666666663 0.03125 0.04427083333333337 0.05338541666666663 0.05989583333333338 0.06510416666666663 0.07161458333333337 0.07552083333333337 0.08333333333333337 0.08854166666666663 0.09244791666666664 0.09505208333333336 0.09635416666666664 0.09895833333333336 0.09895833333333336 0.10026041666666664 0.1015625 0.10677083333333336 0.11067708333333336 0.11197916666666664,83.29999999998836 103.29999999998836 123.29999999998836 143.2999999999884 163.2999999999884 183.29999999998842 203.29999999998842 223.29999999998842 243.29999999998842 263.2999999999884 283.29999999998836 303.29999999998836 323.29999999998836 343.29999999998836 363.2999999999884 383.2999999999884 403.2999999999884 423.2999999999884 443.2999999999884 463.2999999999884 483.2999999999884 503.2999999999884 523.2999999999884 543.2999999999884 563.2999999999884 583.2999999999884 603.2999999999884 623.2999999999884 643.2999999999884 663.2999999999884 683.2999999999884 703.2999999999884 723.2999999999884 743.2999999999884 763.2999999999884 783.2999999999884 803.2999999999884 823.2999999999884 843.2999999999884 863.2999999999884 883.2999999999884 903.2999999999884 923.2999999999884
cb_05,13.0,enc_trial,stim,response,Iceland trip,1639.800000035786,enc_trial,1.0,13.0,t_m_05_1,travel_Miami,fold-d,sunscreen,5.0,unique,close,paired,t_m_05_1.jpg,Miami,travel-b1,Iceland trip,Miami trip,sub-87,0.0,0.0,1.0,1.0,0.4833984375 0.4833984375 0.484375 0.4853515625 0.486328125 0.490234375 0.4951171875 0.5029296875 0.513671875 0.53125 0.6162109375 0.669921875 0.7216796875 0.7587890625 0.7802734375 0.791015625 0.791015625 0.791015625 0.791015625 0.7900390625 0.7900390625 0.7900390625 0.7900390625 0.7900390625 0.7900390625 0.7919921875 0.79296875 0.79296875 0.794921875 0.7958984375 0.8056640625 0.8095703125 0.814453125 0.818359375 0.8232421875 0.826171875 0.826171875 0.826171875 0.826171875 0.8271484375 0.8271484375 0.8271484375 0.8271484375 0.8271484375 0.8271484375 0.765625 0.6796875 0.5087890625 0.400390625 0.34765625 0.1796875 0.162109375 0.1572265625 0.1552734375 0.15234375 0.1396484375 0.1328125 0.12890625 0.12890625 0.1279296875,0.828125 0.828125 0.8268229166666666 0.82421875 0.8190104166666666 0.7981770833333334 0.7799479166666666 0.7578125 0.7330729166666667 0.7005208333333333 0.5546875 0.4713541666666666 0.390625 0.32552083333333337 0.28255208333333337 0.2356770833333333 0.22135416666666666 0.2109375 0.203125 0.2005208333333333 0.19921875 0.19921875 0.19791666666666666 0.19401041666666666 0.18619791666666666 0.17708333333333334 0.17578125 0.17447916666666666 0.17447916666666666 0.17447916666666666 0.16927083333333334 0.16796875 0.1640625 0.16145833333333334 0.16015625 0.15885416666666666 0.15885416666666666 0.15885416666666666 0.15885416666666666 0.15885416666666666 0.15885416666666666 0.15885416666666666 0.15885416666666666 0.15885416666666666 0.15885416666666666 0.13932291666666666 0.12890625 0.12109375 0.11848958333333336 0.11848958333333336 0.12109375 0.12630208333333334 0.13020833333333334 0.1328125 0.13802083333333334 0.15234375 0.15885416666666666 0.16276041666666666 0.1640625 0.1640625,250.0 270.0 290.0 310.0 330.0 350.0 370.0 390.0 410.0 430.0 450.0 470.0 490.0 510.0 530.0 550.0 570.0 590.0 610.0 630.0 650.0 670.0 690.0 710.0 730.0 750.0 770.0 790.0 810.0 830.0 850.0 870.0 890.0 910.0 930.0 950.0 970.0 990.0 1010.0 1030.0 1050.0 1070.0 1090.0 1110.0 1130.0 1150.0 1170.0 1190.0 1210.0 1230.0 1250.0 1270.0 1290.0 1310.0 1330.0 1350.0 1370.0 1390.0 1410.0 1430.0
cb_05,14.0,enc_trial,stim,response,Miami trip,1226.9000000476954,enc_trial,1.0,14.0,t_s_10_2,travel_shared,fold-c,luggage lock,5.0,competing,close,paired,t_s_10_2.jpg,,travel-b1,Iceland trip,Miami trip,sub-87,0.0,0.0,0.0,1.0,0.47265625 0.47265625 0.47265625 0.47265625 0.47265625 0.48046875 0.48828125 0.5146484375 0.5341796875 0.5517578125 0.591796875 0.6171875 0.6357421875 0.6455078125 0.6513671875 0.658203125 0.66015625 0.66015625 0.6572265625 0.6533203125 0.65234375 0.65234375 0.6552734375 0.66015625 0.66796875 0.6884765625 0.6982421875 0.720703125 0.7392578125 0.7607421875 0.7958984375 0.806640625 0.80859375 0.8095703125 0.8095703125 0.80859375 0.80859375 0.80859375 0.810546875 0.8154296875 0.8271484375 0.8330078125 0.8369140625 0.837890625 0.8388671875 0.83984375 0.8408203125 0.8427734375 0.845703125 0.8505859375 0.859375 0.861328125 0.86328125 0.8642578125,0.8502604166666666 0.8502604166666666 0.8489583333333334 0.8463541666666666 0.84375 0.8346354166666666 0.82421875 0.8020833333333334 0.7890625 0.77734375 0.73046875 0.6927083333333333 0.65625 0.62109375 0.5846354166666667 0.5065104166666667 0.4700520833333334 0.41927083333333337 0.38802083333333337 0.3619791666666666 0.32291666666666663 0.31119791666666663 0.30598958333333337 0.29947916666666663 0.29557291666666663 0.29296875 0.29296875 0.29166666666666663 0.2890625 0.28255208333333337 0.27083333333333337 0.26432291666666663 0.26041666666666663 0.25911458333333337 0.25651041666666663 0.24479166666666666 0.23697916666666666 0.22526041666666666 0.21744791666666666 0.20963541666666666 0.1953125 0.1888020833333333 0.1848958333333333 0.1848958333333333 0.1848958333333333 0.18359375 0.1809895833333333 0.17838541666666666 0.17317708333333334 0.16666666666666666 0.15364583333333334 0.14583333333333334 0.14322916666666666 0.140625,166.6000000000349 186.6000000000349 206.6000000000349 226.6000000000349 246.6000000000349 266.6000000000349 286.60000000003487 306.60000000003487 326.60000000003487 346.60000000003487 366.60000000003487 386.60000000003487 406.60000000003487 426.60000000003487 446.60000000003487 466.60000000003487 486.60000000003487 506.60000000003487 526.6000000000348 546.6000000000348 566.6000000000348 586.6000000000348 606.6000000000348 626.6000000000348 646.6000000000348 666.6000000000348 686.6000000000348 706.6000000000349 726.6000000000349 746.6000000000349 766.6000000000349 786.6000000000349 806.6000000000349 826.6000000000349 846.6000000000349 866.6000000000349 886.6000000000349 906.6000000000348 926.6000000000348 946.6000000000348 966.6000000000348 986.6000000000348 1006.6000000000348 1026.600000000035 1046.600000000035 1066.600000000035 1086.600000000035 1106.600000000035 1126.600000000035 1146.600000000035 1166.600000000035 1186.600000000035 1206.600000000035 1226.600000000035
cb_05,15.0,enc_trial,stim,response,Iceland trip,2853.800000035786,enc_trial,1.0,15.0,t_s_18_2,travel_shared,fold-a,first aid kit,5.0,competing,far,paired,t_s_18_2.jpg,,travel-b1,Iceland trip,Miami trip,sub-87,0.0,0.0,0.0,0.0,0.5205078125 0.521484375 0.5263671875 0.5400390625 0.5771484375 1.025390625 1.166015625 1.166015625 1.166015625 1.166015625 1.166015625 1.166015625 1.166015625 1.166015625 1.166015625 1.166015625 1.166015625 1.166015625 1.166015625 1.166015625 1.166015625 1.166015625 1.1630859375 1.154296875 1.154296875 1.154296875 1.154296875 1.154296875 1.154296875 0.6474609375 0.6318359375 0.5703125 0.5390625 0.5068359375 0.466796875 0.4560546875 0.41796875 0.4150390625 0.4130859375 0.4033203125 0.37890625 0.302734375 0.251953125 0.1875 0.107421875 -0.1669921875 -0.1669921875 -0.1669921875 -0.1669921875 -0.1669921875 -0.1669921875 -0.1669921875 -0.1669921875 -0.1669921875 -0.1669921875 -0.1669921875 -0.1669921875 -0.1669921875 -0.1669921875 -0.1669921875 -0.1669921875 -0.1669921875 -0.1669921875 -0.1669921875 -0.1669921875 -0.1669921875 -0.1669921875 -0.1669921875 -0.1650390625 -0.14453125 -0.083984375 -0.033203125 -0.0048828125 0.0703125 0.1787109375 0.537109375 0.66796875 0.7783203125 0.849609375 0.884765625 0.896484375 0.88671875 0.8349609375 0.748046875 0.65234375 0.4990234375 0.4814453125 0.4775390625 0.4765625 0.4775390625 0.48828125 0.5087890625 0.5087890625 0.509765625 0.5126953125 0.5126953125 0.5048828125 0.4921875 0.46875 0.4111328125 0.3310546875 0.2353515625 0.220703125 0.2158203125 0.212890625 0.203125 0.1962890625 0.1875 0.173828125 0.16015625 0.154296875 0.1552734375 0.173828125 0.208984375 0.2197265625 0.2216796875 0.2216796875 0.2216796875 0.2216796875 0.2216796875 0.2216796875 0.2216796875 0.2216796875 0.220703125 0.212890625 0.1787109375 0.1494140625 0.109375 0.0791015625 0.0673828125 0.0673828125 0.0712890625 0.076171875 0.078125 0.0791015625,0.8020833333333334 0.7994791666666666 0.7994791666666666 0.7981770833333334 0.796875 0.86328125 1.0 1.0 1.0 1.0 1.0 1.0 1.0 1.0 1.0 1.0 1.0 1.0 1.0 1.0 1.0 1.0 1.0 1.0 1.0 1.0 1.0 1.0 1.0 0.9921875 0.9544270833333334 0.6861979166666667 0.4739583333333334 0.2473958333333333 0.0013020833333333706 0.0013020833333333706 0.0013020833333333706 0.0013020833333333706 0.0013020833333333706 0.0013020833333333706 0.0013020833333333706 0.0013020833333333706 0.0013020833333333706 0.0013020833333333706 0.0013020833333333706 0.0013020833333333706 0.0013020833333333706 0.0013020833333333706 0.00911458333333337 0.06510416666666663 0.15234375 0.30338541666666663 0.32161458333333337 0.32161458333333337 0.32161458333333337 0.32161458333333337 0.32161458333333337 0.32161458333333337 0.32161458333333337 0.32161458333333337 0.32161458333333337 0.32161458333333337 0.32161458333333337 0.32161458333333337 0.32161458333333337 0.36067708333333337 0.5221354166666667 0.5494791666666667 0.55078125 0.5481770833333333 0.5234375 0.4973958333333334 0.4778645833333334 0.41796875 0.32291666666666663 0.0013020833333333706 0.0013020833333333706 0.0013020833333333706 0.0013020833333333706 0.0013020833333333706 0.00520833333333337 0.015625 0.0234375 0.0234375 0.02473958333333337 0.04166666666666663 0.046875 0.04817708333333337 0.04817708333333337 0.04947916666666663 0.0546875 0.0625 0.0625 0.06380208333333337 0.06510416666666663 0.07942708333333337 0.08854166666666663 0.09895833333333336 0.1171875 0.14973958333333334 0.18359375 0.1966145833333333 0.1953125 0.1888020833333333 0.1809895833333333 0.16276041666666666 0.15234375 0.14322916666666666 0.13541666666666666 0.13151041666666666 0.13020833333333334 0.13020833333333334 0.13151041666666666 0.13541666666666666 0.13541666666666666 0.13541666666666666 0.13541666666666666 0.13541666666666666 0.13541666666666666 0.13541666666666666 0.13541666666666666 0.13541666666666666 0.13541666666666666 0.1328125 0.12630208333333334 0.1171875 0.11328125 0.11328125 0.11328125 0.11328125 0.11458333333333336 0.11588541666666664 0.11588541666666664 0.11588541666666664 0.11588541666666664,183.0 203.0 223.0 243.0 263.0 283.0 303.0 323.0 343.0 363.0 383.0 403.0 423.0 443.0 463.0 483.0 503.0 523.0 543.0 563.0 583.0 603.0 623.0 643.0 663.0 683.0 703.0 723.0 743.0 763.0 783.0 803.0 823.0 843.0 863.0 883.0 903.0 923.0 943.0 963.0 983.0 1003.0 1023.0 1043.0 1063.0 1083.0 1103.0 1123.0 1143.0 1163.0 1183.0 1203.0 1223.0 1243.0 1263.0 1283.0 1303.0 1323.0 1343.0 1363.0 1383.0 1403.0 1423.0 1443.0 1463.0 1483.0 1503.0 1523.0 1543.0 1563.0 1583.0 1603.0 1623.0 1643.0 1663.0 1683.0 1703.0 1723.0 1743.0 1763.0 1783.0 1803.0 1823.0 1843.0 1863.0 1883.0 1903.0 1923.0 1943.0 1963.0 1983.0 2003.0 2023.0 2043.0 2063.0 2083.0 2103.0 2123.0 2143.0 2163.0 2183.0 2203.0 2223.0 2243.0 2263.0 2283.0 2303.0 2323.0 2343.0 2363.0 2383.0 2403.0 2423.0 2443.0 2463.0 2483.0 2503.0 2523.0 2543.0 2563.0 2583.0 2603.0 2623.0 2643.0 2663.0 2683.0 2703.0 2723.0 2743.0 2763.0 2783.0 2803.0 2823.0 2843.0 2863.0
cb_05,16.0,enc_trial,stim,response,Miami trip,1149.2999999999886,enc_trial,1.0,16.0,t_s_20_2,travel_shared,fold-a,travel pill case,5.0,competing,far,paired,t_s_20_2.jpg,,travel-b1,Iceland trip,Miami trip,sub-87,0.0,0.0,1.0,1.0,0.498046875 0.498046875 0.498046875 0.498046875 0.498046875 0.498046875 0.498046875 0.498046875 0.498046875 0.498046875 0.498046875 0.4970703125 0.49609375 0.49609375 0.49609375 0.5009765625 0.517578125 0.533203125 0.5654296875 0.625 0.7705078125 0.9541015625 1.01953125 1.0517578125 1.0615234375 1.0615234375 1.0361328125 1.013671875 0.994140625 0.978515625 0.9765625 0.9755859375 0.9755859375 0.9736328125 0.9697265625 0.962890625 0.9521484375 0.94921875 0.9453125 0.9384765625 0.9345703125 0.9326171875 0.9306640625 0.9248046875 0.919921875 0.9130859375 0.9091796875 0.9072265625 0.90234375 0.89453125 0.8935546875 0.892578125,0.8424479166666666 0.8424479166666666 0.8424479166666666 0.8424479166666666 0.8424479166666666 0.8424479166666666 0.8424479166666666 0.8411458333333334 0.8411458333333334 0.8411458333333334 0.8411458333333334 0.83984375 0.8372395833333334 0.828125 0.8111979166666666 0.78515625 0.7265625 0.6875 0.6236979166666667 0.5299479166666667 0.359375 0.20572916666666666 0.15364583333333334 0.125 0.1171875 0.11458333333333336 0.11197916666666664 0.11197916666666664 0.11328125 0.11588541666666664 0.11588541666666664 0.11588541666666664 0.11588541666666664 0.11588541666666664 0.11588541666666664 0.11458333333333336 0.11458333333333336 0.11458333333333336 0.11328125 0.11328125 0.11458333333333336 0.1171875 0.11979166666666664 0.12369791666666664 0.12630208333333334 0.13020833333333334 0.13020833333333334 0.13020833333333334 0.13020833333333334 0.13020833333333334 0.13020833333333334 0.13020833333333334,116.40000000002328 136.40000000002328 156.40000000002328 176.40000000002328 196.40000000002328 216.40000000002328 236.40000000002328 256.4000000000233 276.4000000000233 296.4000000000233 316.4000000000233 336.4000000000233 356.40000000002334 376.40000000002334 396.40000000002334 416.40000000002334 436.40000000002334 456.40000000002334 476.40000000002334 496.40000000002334 516.4000000000234 536.4000000000234 556.4000000000234 576.4000000000233 596.4000000000233 616.4000000000233 636.4000000000233 656.4000000000233 676.4000000000233 696.4000000000232 716.4000000000232 736.4000000000232 756.4000000000232 776.4000000000232 796.4000000000232 816.4000000000232 836.4000000000232 856.4000000000232 876.4000000000232 896.4000000000232 916.4000000000232 936.4000000000232 956.4000000000232 976.4000000000232 996.4000000000232 1016.4000000000232 1036.4000000000233 1056.4000000000233 1076.4000000000233 1096.4000000000233 1116.4000000000233 1136.4000000000233
cb_05,17.0,enc_trial,stim,response,Miami trip,1283.7000000000114,enc_trial,1.0,17.0,t_m_05_2,travel_Miami,fold-d,sunscreen,5.0,unique,close,paired,t_m_05_2.jpg,Miami,travel-b1,Iceland trip,Miami trip,sub-87,0.0,0.0,1.0,1.0,0.5068359375 0.51171875 0.521484375 0.537109375 0.5625 0.6630859375 0.689453125 0.70703125 0.7236328125 0.7421875 0.775390625 0.7861328125 0.79296875 0.798828125 0.798828125 0.798828125 0.798828125 0.7998046875 0.80078125 0.80078125 0.7978515625 0.79296875 0.7861328125 0.7783203125 0.7705078125 0.7646484375 0.7646484375 0.7646484375 0.7646484375 0.7646484375 0.77734375 0.7900390625 0.8076171875 0.828125 0.84375 0.8564453125 0.857421875 0.857421875 0.857421875 0.857421875 0.857421875 0.8564453125 0.853515625 0.8525390625 0.8525390625 0.8515625 0.8515625 0.8515625 0.8505859375 0.849609375,0.796875 0.7799479166666666 0.7565104166666666 0.73046875 0.69140625 0.51953125 0.4453125 0.3776041666666666 0.31510416666666663 0.25911458333333337 0.17578125 0.15234375 0.13932291666666666 0.1328125 0.1328125 0.13151041666666666 0.13151041666666666 0.13151041666666666 0.13541666666666666 0.14583333333333334 0.17578125 0.19140625 0.20703125 0.22265625 0.2395833333333333 0.25 0.25130208333333337 0.25130208333333337 0.25130208333333337 0.25130208333333337 0.24609375 0.23697916666666666 0.2239583333333333 0.2109375 0.20182291666666666 0.1927083333333333 0.19140625 0.19010416666666666 0.1875 0.18359375 0.17317708333333334 0.16666666666666666 0.15755208333333334 0.15234375 0.15104166666666666 0.14713541666666666 0.14583333333333334 0.14583333333333334 0.14453125 0.14322916666666666,150.0 170.0 190.0 210.0 230.0 250.0 270.0 290.0 310.0 330.0 350.0 370.0 390.0 410.0 430.0 450.0 470.0 490.0 510.0 530.0 550.0 570.0 590.0 610.0 630.0 650.0 670.0 690.0 710.0 730.0 750.0 770.0 790.0 810.0 830.0 850.0 870.0 890.0 910.0 930.0 950.0 970.0 990.0 1010.0 1030.0 1050.0 1070.0 1090.0 1110.0 1130.0
cb_05,18.0,enc_trial,stim,response,Miami trip,1228.4000000118974,enc_trial,1.0,18.0,t_s_08_2,travel_shared,fold-a,hand lotion,5.0,competing,far,paired,t_s_08_2.jpg,,travel-b1,Iceland trip,Miami trip,sub-87,1.0,1.0,0.0,0.0,0.5205078125 0.505859375 0.4951171875 0.486328125 0.4912109375 0.5087890625 0.578125 0.6201171875 0.6513671875 0.673828125 0.6943359375 0.701171875 0.7080078125 0.71875 0.728515625 0.734375 0.73828125 0.7392578125 0.740234375 0.740234375 0.7421875 0.7431640625 0.7451171875 0.748046875 0.751953125 0.759765625 0.78125 0.791015625 0.8017578125 0.8115234375 0.8193359375 0.822265625 0.8291015625 0.84375 0.8642578125 0.8857421875 0.9111328125 0.9130859375,0.83203125 0.8111979166666666 0.7760416666666666 0.69140625 0.5625 0.421875 0.1640625 0.09505208333333336 0.06770833333333337 0.06119791666666662 0.05989583333333338 0.05859375 0.05729166666666662 0.0546875 0.05338541666666663 0.05208333333333337 0.05208333333333337 0.05338541666666663 0.05598958333333337 0.05989583333333338 0.06770833333333337 0.07291666666666663 0.078125 0.08463541666666663 0.08984375 0.09635416666666664 0.10807291666666664 0.109375 0.11328125 0.11458333333333336 0.11588541666666664 0.11588541666666664 0.11588541666666664 0.11588541666666664 0.11588541666666664 0.11588541666666664 0.1171875 0.11848958333333336,399.7999999999884 419.7999999999884 439.7999999999884 459.7999999999884 479.7999999999884 499.7999999999884 519.7999999999884 539.7999999999884 559.7999999999884 579.7999999999884 599.7999999999884 619.7999999999884 639.7999999999884 659.7999999999884 679.7999999999884 699.7999999999884 719.7999999999884 739.7999999999884 759.7999999999884 779.7999999999884 799.7999999999884 819.7999999999884 839.7999999999884 859.7999999999884 879.7999999999884 899.7999999999884 919.7999999999884 939.7999999999884 959.7999999999884 979.7999999999884 999.7999999999884 1019.7999999999884 1039.7999999999884 1059.7999999999884 1079.7999999999884 1099.7999999999884 1119.7999999999884 1139.7999999999886
cb_05,19.0,enc_trial,stim,response,Miami trip,1229.9000000357628,enc_trial,1.0,19.0,t_m_04_2,travel_Miami,fold-e,UV jacket,5.0,unique,far,paired,t_m_04_2.jpg,Miami,travel-b1,Iceland trip,Miami trip,sub-87,0.0,0.0,0.0,0.0,0.5009765625 0.5009765625 0.5029296875 0.50390625 0.5048828125 0.5087890625 0.5087890625 0.509765625 0.509765625 0.5078125 0.478515625 0.46484375 0.4541015625 0.4482421875 0.4462890625 0.453125 0.49609375 0.5595703125 0.59765625 0.73046875 0.8623046875 0.892578125 0.90625 0.9111328125 0.912109375 0.9072265625 0.9013671875 0.896484375 0.8935546875 0.890625 0.8837890625 0.8798828125 0.875 0.87109375 0.8701171875 0.8701171875 0.869140625 0.869140625 0.869140625 0.869140625 0.8701171875 0.873046875 0.8798828125 0.8857421875 0.888671875 0.892578125 0.8935546875 0.8935546875 0.8935546875,0.8059895833333334 0.80078125 0.7916666666666666 0.7825520833333334 0.76953125 0.7395833333333333 0.7161458333333333 0.6848958333333333 0.6497395833333333 0.5859375 0.4973958333333334 0.4700520833333334 0.4505208333333334 0.43880208333333337 0.4296875 0.40364583333333337 0.36848958333333337 0.32942708333333337 0.30859375 0.25 0.23046875 0.2317708333333333 0.23828125 0.24479166666666666 0.25130208333333337 0.26302083333333337 0.26822916666666663 0.27213541666666663 0.27213541666666663 0.27473958333333337 0.27734375 0.27864583333333337 0.27994791666666663 0.28125 0.28125 0.28125 0.28125 0.28125 0.28125 0.27994791666666663 0.234375 0.22265625 0.2005208333333333 0.1809895833333333 0.16796875 0.15494791666666666 0.14973958333333334 0.14453125 0.14192708333333334,116.70000000001164 136.70000000001164 156.7000000000116 176.70000000001164 196.70000000001164 216.70000000001164 236.70000000001164 256.70000000001164 276.70000000001164 296.70000000001164 316.70000000001164 336.70000000001164 356.7000000000116 376.7000000000117 396.7000000000117 416.7000000000117 436.7000000000117 456.7000000000117 476.7000000000117 496.7000000000117 516.7000000000116 536.7000000000116 556.7000000000116 576.7000000000116 596.7000000000116 616.7000000000116 636.7000000000116 656.7000000000116 676.7000000000116 696.7000000000116 716.7000000000116 736.7000000000116 756.7000000000116 776.7000000000116 796.7000000000116 816.7000000000116 836.7000000000116 856.7000000000116 876.7000000000116 896.7000000000116 916.7000000000116 936.7000000000116 956.7000000000116 976.7000000000116 996.7000000000116 1016.7000000000116 1036.7000000000116 1056.7000000000116 1076.7000000000116
cb_05,20.0,enc_trial,stim,response,Miami trip,1472.4000000118976,enc_trial,1.0,20.0,t_m_20_1,travel_Miami,fold-e,inflatable beachball,5.0,unique,far,paired,t_m_20_1.jpg,Miami,travel-b1,Iceland trip,Miami trip,sub-87,1.0,1.0,1.0,1.0,0.5107421875 0.5107421875 0.5107421875 0.5107421875 0.5107421875 0.5107421875 0.5107421875 0.5107421875 0.5107421875 0.5107421875 0.5107421875 0.5107421875 0.5107421875 0.5107421875 0.5107421875 0.5107421875 0.51171875 0.5126953125 0.5126953125 0.513671875 0.517578125 0.517578125 0.517578125 0.5205078125 0.5263671875 0.5546875 0.5859375 0.60546875 0.6220703125 0.6318359375 0.63671875 0.630859375 0.6044921875 0.546875 0.4755859375 0.32421875 0.2451171875 0.2265625 0.2236328125 0.22265625 0.24609375 0.275390625 0.3349609375 0.4189453125 0.5166015625 0.7021484375 0.7890625 0.8125 0.8193359375 0.8203125 0.8203125 0.8212890625 0.822265625 0.8232421875 0.8232421875 0.8232421875 0.822265625 0.822265625 0.822265625 0.822265625 0.822265625 0.822265625 0.822265625 0.8251953125 0.83203125 0.8544921875 0.86328125 0.8662109375 0.8662109375 0.8662109375 0.8671875 0.8671875 0.8681640625,0.83203125 0.83203125 0.83203125 0.83203125 0.83203125 0.83203125 0.83203125 0.83203125 0.83203125 0.83203125 0.83203125 0.83203125 0.83203125 0.83203125 0.83203125 0.83203125 0.828125 0.8177083333333334 0.8020833333333334 0.78125 0.7122395833333333 0.64453125 0.5638020833333333 0.48046875 0.39973958333333337 0.25911458333333337 0.19791666666666666 0.17708333333333334 0.16666666666666666 0.16145833333333334 0.15885416666666666 0.14973958333333334 0.13671875 0.1171875 0.10546875 0.10286458333333336 0.10546875 0.11067708333333336 0.11458333333333336 0.11848958333333336 0.14192708333333334 0.15364583333333334 0.171875 0.17838541666666666 0.1809895833333333 0.1809895833333333 0.17708333333333334 0.171875 0.17057291666666666 0.16927083333333334 0.16796875 0.16015625 0.15625 0.15364583333333334 0.15104166666666666 0.140625 0.13541666666666666 0.13411458333333334 0.13411458333333334 0.13411458333333334 0.13411458333333334 0.13411458333333334 0.13411458333333334 0.1328125 0.1328125 0.1328125 0.1328125 0.1328125 0.1328125 0.1328125 0.1328125 0.1328125 0.1328125,0.0 20.0 40.0 60.0 80.0 100.0 120.0 140.0 160.0 180.0 200.0 220.0 240.0 260.0 280.0 300.0 320.0 340.0 360.0 380.0 400.0 420.0 440.0 460.0 480.0 500.0 520.0 540.0 560.0 580.0 600.0 620.0 640.0 660.0 680.0 700.0 720.0 740.0 760.0 780.0 800.0 820.0 840.0 860.0 880.0 900.0 920.0 940.0 960.0 980.0 1000.0 1020.0 1040.0 1060.0 1080.0 1100.0 1120.0 1140.0 1160.0 1180.0 1200.0 1220.0 1240.0 1260.0 1280.0 1300.0 1320.0 1340.0 1360.0 1380.0 1400.0 1420.0 1440.0
cb_05,21.0,enc_trial,stim,response,Iceland trip,1183.3999999999069,enc_trial,1.0,21.0,t_s_22_2,travel_shared,fold-a,belt,5.0,competing,far,paired,t_s_22_2.jpg,,travel-b1,Iceland trip,Miami trip,sub-87,1.0,1.0,1.0,0.0,0.509765625 0.509765625 0.509765625 0.509765625 0.509765625 0.509765625 0.509765625 0.505859375 0.5029296875 0.5009765625 0.498046875 0.498046875 0.5009765625 0.5107421875 0.51953125 0.5458984375 0.5537109375 0.5595703125 0.560546875 0.5576171875 0.53125 0.5107421875 0.4873046875 0.451171875 0.4033203125 0.302734375 0.2626953125 0.232421875 0.2255859375 0.224609375 0.2236328125 0.2236328125 0.2236328125 0.2236328125 0.2236328125 0.2236328125 0.2236328125 0.2236328125 0.2236328125 0.2236328125 0.2197265625 0.2119140625 0.197265625 0.1787109375 0.1630859375 0.154296875,0.8177083333333334 0.8177083333333334 0.8177083333333334 0.81640625 0.8151041666666666 0.8125 0.80859375 0.796875 0.7825520833333334 0.7669270833333334 0.7200520833333333 0.6888020833333333 0.6471354166666667 0.58203125 0.5104166666666667 0.35416666666666663 0.29947916666666663 0.25651041666666663 0.22135416666666666 0.19140625 0.14453125 0.1328125 0.12630208333333334 0.12109375 0.12109375 0.12760416666666666 0.13411458333333334 0.13802083333333334 0.13932291666666666 0.13932291666666666 0.140625 0.140625 0.140625 0.140625 0.140625 0.14192708333333334 0.14583333333333334 0.14713541666666666 0.15234375 0.15494791666666666 0.15755208333333334 0.16015625 0.16145833333333334 0.16145833333333334 0.16145833333333334 0.16145833333333334,166.69999999995343 186.69999999995343 206.69999999995343 226.69999999995343 246.69999999995343 266.69999999995343 286.69999999995343 306.69999999995343 326.69999999995343 346.69999999995343 366.69999999995343 386.69999999995343 406.69999999995343 426.69999999995343 446.69999999995343 466.69999999995343 486.69999999995343 506.69999999995343 526.6999999999534 546.6999999999534 566.6999999999534 586.6999999999534 606.6999999999534 626.6999999999534 646.6999999999534 666.6999999999534 686.6999999999534 706.6999999999533 726.6999999999533 746.6999999999533 766.6999999999533 786.6999999999533 806.6999999999533 826.6999999999533 846.6999999999533 866.6999999999533 886.6999999999533 906.6999999999533 926.6999999999533 946.6999999999533 966.6999999999533 986.6999999999533 1006.6999999999533 1026.6999999999532 1046.6999999999532 1066.6999999999532
cb_05,22.0,enc_trial,stim,response,Miami trip,1355.2000000119442,enc_trial,1.0,22.0,t_m_01_1,travel_Miami,fold-a-single,sandals,5.0,unique,,single,t_m_01_1.jpg,Miami,travel-b1,Iceland trip,Miami trip,sub-87,1.0,,1.0,,0.5029296875 0.5029296875 0.5029296875 0.5068359375 0.5107421875 0.5185546875 0.5205078125 0.5205078125 0.517578125 0.5048828125 0.4921875 0.482421875 0.4833984375 0.48828125 0.4990234375 0.5322265625 0.5546875 0.5810546875 0.6142578125 0.65625 0.728515625 0.7548828125 0.7744140625 0.7900390625 0.7939453125 0.7958984375 0.798828125 0.8017578125 0.806640625 0.8076171875 0.8095703125 0.8125 0.8232421875 0.8359375 0.8486328125 0.85546875 0.857421875 0.8583984375 0.8583984375,0.82421875 0.8216145833333334 0.8151041666666666 0.7994791666666666 0.7825520833333334 0.73046875 0.6927083333333333 0.6432291666666667 0.5807291666666667 0.5104166666666667 0.4544270833333334 0.3776041666666666 0.34375 0.328125 0.30989583333333337 0.27734375 0.265625 0.25911458333333337 0.25520833333333337 0.25 0.2434895833333333 0.2421875 0.24088541666666666 0.2395833333333333 0.23828125 0.2356770833333333 0.23307291666666666 0.2278645833333333 0.2239583333333333 0.22265625 0.2200520833333333 0.21484375 0.2005208333333333 0.18619791666666666 0.17447916666666666 0.16536458333333334 0.16276041666666666 0.16015625 0.15885416666666666,333.4000000000233 353.40000000002334 373.40000000002334 393.40000000002334 413.40000000002334 433.40000000002334 453.40000000002334 473.40000000002334 493.40000000002334 513.4000000000234 533.4000000000234 553.4000000000234 573.4000000000233 593.4000000000233 613.4000000000233 633.4000000000233 653.4000000000233 673.4000000000233 693.4000000000232 713.4000000000232 733.4000000000232 753.4000000000232 773.4000000000232 793.4000000000232 813.4000000000232 833.4000000000232 853.4000000000232 873.4000000000232 893.4000000000232 913.4000000000232 933.4000000000232 953.4000000000232 973.4000000000232 993.4000000000232 1013.4000000000232 1033.4000000000233 1053.4000000000233 1073.4000000000233 1093.4000000000233
cb_05,23.0,enc_trial,stim,response,Miami trip,1165.1000000357744,enc_trial,1.0,23.0,t_s_04_1,travel_shared,fold-c,instant camera,5.0,competing,close,paired,t_s_04_1.jpg,,travel-b1,Iceland trip,Miami trip,sub-87,0.0,0.0,1.0,1.0,0.505859375 0.505859375 0.505859375 0.505859375 0.505859375 0.505859375 0.5048828125 0.50390625 0.5029296875 0.5029296875 0.5029296875 0.5029296875 0.5029296875 0.5029296875 0.5029296875 0.5029296875 0.5029296875 0.5029296875 0.501953125 0.501953125 0.5009765625 0.5 0.5 0.5 0.4990234375 0.5 0.5107421875 0.515625 0.5244140625 0.5322265625 0.591796875 0.6435546875 0.693359375 0.744140625 0.7939453125 0.83203125 0.865234375 0.869140625 0.8740234375 0.8759765625 0.876953125 0.876953125 0.8779296875 0.8779296875 0.8779296875 0.8779296875 0.8818359375 0.8837890625 0.8876953125 0.888671875 0.888671875 0.888671875 0.888671875 0.888671875 0.8876953125 0.8828125 0.8828125 0.8818359375 0.880859375,0.7994791666666666 0.7955729166666666 0.79296875 0.79296875 0.79296875 0.79296875 0.7955729166666666 0.7981770833333334 0.7981770833333334 0.7981770833333334 0.7981770833333334 0.7981770833333334 0.7981770833333334 0.7981770833333334 0.7981770833333334 0.7981770833333334 0.7981770833333334 0.7981770833333334 0.7981770833333334 0.7981770833333334 0.7981770833333334 0.79296875 0.7877604166666666 0.7799479166666666 0.7721354166666666 0.7604166666666666 0.7252604166666667 0.69921875 0.6536458333333333 0.6171875 0.4609375 0.36458333333333337 0.27864583333333337 0.2044270833333333 0.14322916666666666 0.10677083333333336 0.08333333333333337 0.08203125 0.07682291666666663 0.07421875 0.0703125 0.0703125 0.06901041666666663 0.06901041666666663 0.06901041666666663 0.06901041666666663 0.06901041666666663 0.06901041666666663 0.07161458333333337 0.07161458333333337 0.07161458333333337 0.07291666666666663 0.07421875 0.07682291666666663 0.07942708333333337 0.0859375 0.0859375 0.08723958333333337 0.08854166666666663,0.0 20.0 40.0 60.0 80.0 100.0 120.0 140.0 160.0 180.0 200.0 220.0 240.0 260.0 280.0 300.0 320.0 340.0 360.0 380.0 400.0 420.0 440.0 460.0 480.0 500.0 520.0 540.0 560.0 580.0 600.0 620.0 640.0 660.0 680.0 700.0 720.0 740.0 760.0 780.0 800.0 820.0 840.0 860.0 880.0 900.0 920.0 940.0 960.0 980.0 1000.0 1020.0 1040.0 1060.0 1080.0 1100.0 1120.0 1140.0 1160.0
cb_05,24.0,enc_trial,stim,response,Miami trip,1190.100000023842,enc_trial,1.0,24.0,t_s_24_1,travel_shared,fold-c,ear plugs,5.0,competing,close,paired,t_s_24_1.jpg,,travel-b1,Iceland trip,Miami trip,sub-87,1.0,1.0,0.0,0.0,0.478515625 0.48046875 0.484375 0.4931640625 0.5078125 0.5341796875 0.541015625 0.5458984375 0.5458984375 0.5458984375 0.5458984375 0.5458984375 0.5458984375 0.5478515625 0.5654296875 0.6474609375 0.71484375 0.7578125 0.7900390625 0.8125 0.8125 0.8125 0.8125 0.8125 0.8125 0.8125 0.8115234375 0.802734375 0.7998046875 0.798828125 0.7978515625 0.7978515625 0.7978515625 0.7978515625 0.798828125 0.8046875 0.8095703125 0.81640625 0.8232421875 0.83203125 0.8447265625 0.84765625 0.849609375 0.849609375 0.849609375 0.849609375 0.849609375,0.8177083333333334 0.8125 0.7994791666666666 0.7786458333333334 0.7578125 0.7291666666666667 0.7213541666666667 0.7161458333333333 0.71484375 0.71484375 0.71484375 0.7096354166666667 0.6979166666666667 0.66796875 0.6119791666666667 0.44921875 0.34244791666666663 0.27864583333333337 0.22916666666666666 0.1953125 0.1953125 0.1953125 0.1953125 0.1953125 0.1953125 0.1953125 0.20182291666666666 0.21484375 0.2200520833333333 0.22135416666666666 0.22135416666666666 0.22135416666666666 0.22135416666666666 0.22265625 0.22265625 0.22265625 0.22265625 0.21744791666666666 0.2122395833333333 0.20182291666666666 0.18229166666666666 0.17447916666666666 0.16927083333333334 0.16536458333333334 0.16145833333333334 0.15885416666666666 0.15755208333333334,133.5 153.5 173.5 193.5 213.5 233.5 253.5 273.5 293.5 313.5 333.5 353.5 373.5 393.5 413.5 433.5 453.5 473.5 493.5 513.5 533.5 553.5 573.5 593.5 613.5 633.5 653.5 673.5 693.5 713.5 733.5 753.5 773.5 793.5 813.5 833.5 853.5 873.5 893.5 913.5 933.5 953.5 973.5 993.5 1013.5 1033.5 1053.5
cb_05,25.0,enc_trial,stim,response,Iceland trip,1583.2999999999884,enc_trial,1.0,25.0,t_i_02_1,travel_Iceland,fold-e,scarf,5.0,unique,far,paired,t_i_02_1.jpg,Iceland,travel-b1,Iceland trip,Miami trip,sub-87,1.0,1.0,1.0,1.0,0.5166015625 0.515625 0.515625 0.5166015625 0.5244140625 0.5537109375 0.58203125 0.6142578125 0.6435546875 0.6611328125 0.673828125 0.669921875 0.65234375 0.62109375 0.5595703125 0.48828125 0.4697265625 0.4638671875 0.478515625 0.521484375 0.5888671875 0.7529296875 0.81640625 0.8505859375 0.859375 0.8603515625 0.8603515625 0.8603515625 0.8603515625 0.861328125 0.861328125 0.861328125 0.861328125 0.861328125 0.861328125 0.861328125 0.861328125 0.85546875 0.8505859375 0.8486328125 0.84765625 0.84765625 0.84765625 0.84765625 0.845703125 0.8203125 0.794921875 0.751953125 0.685546875 0.6005859375 0.4306640625 0.3583984375 0.294921875 0.21875 0.189453125 0.1708984375 0.169921875 0.169921875 0.169921875 0.1708984375 0.1728515625 0.1748046875 0.1748046875 0.1748046875 0.1748046875 0.1748046875 0.1748046875 0.1748046875 0.1748046875 0.1748046875 0.1748046875 0.16796875 0.1640625 0.1630859375,0.84375 0.8385416666666666 0.83203125 0.82421875 0.80859375 0.76953125 0.7408854166666667 0.7083333333333333 0.6770833333333333 0.65625 0.6354166666666667 0.6236979166666667 0.60546875 0.58203125 0.5208333333333333 0.4375 0.40234375 0.3658854166666666 0.32421875 0.26822916666666663 0.2161458333333333 0.15625 0.14453125 0.14192708333333334 0.140625 0.140625 0.140625 0.140625 0.13932291666666666 0.13932291666666666 0.13932291666666666 0.13932291666666666 0.13932291666666666 0.13932291666666666 0.13932291666666666 0.13932291666666666 0.140625 0.14453125 0.14713541666666666 0.14973958333333334 0.14973958333333334 0.14973958333333334 0.14973958333333334 0.14973958333333334 0.14973958333333334 0.13020833333333334 0.11979166666666664 0.11458333333333336 0.11197916666666664 0.11197916666666664 0.11328125 0.11848958333333336 0.12890625 0.140625 0.14713541666666666 0.14973958333333334 0.14973958333333334 0.15104166666666666 0.15104166666666666 0.15234375 0.15364583333333334 0.15494791666666666 0.15494791666666666 0.15494791666666666 0.15494791666666666 0.15494791666666666 0.15494791666666666 0.15494791666666666 0.15494791666666666 0.15494791666666666 0.15494791666666666 0.15104166666666666 0.14973958333333334 0.14973958333333334,83.29999999998836 103.29999999998836 123.29999999998836 143.2999999999884 163.2999999999884 183.29999999998842 203.29999999998842 223.29999999998842 243.29999999998842 263.2999999999884 283.29999999998836 303.29999999998836 323.29999999998836 343.29999999998836 363.2999999999884 383.2999999999884 403.2999999999884 423.2999999999884 443.2999999999884 463.2999999999884 483.2999999999884 503.2999999999884 523.2999999999884 543.2999999999884 563.2999999999884 583.2999999999884 603.2999999999884 623.2999999999884 643.2999999999884 663.2999999999884 683.2999999999884 703.2999999999884 723.2999999999884 743.2999999999884 763.2999999999884 783.2999999999884 803.2999999999884 823.2999999999884 843.2999999999884 863.2999999999884 883.2999999999884 903.2999999999884 923.2999999999884 943.2999999999884 963.2999999999884 983.2999999999884 1003.2999999999884 1023.2999999999884 1043.2999999999884 1063.2999999999884 1083.2999999999884 1103.2999999999884 1123.2999999999884 1143.2999999999886 1163.2999999999886 1183.2999999999886 1203.2999999999886 1223.2999999999886 1243.2999999999886 1263.2999999999886 1283.2999999999886 1303.2999999999886 1323.2999999999886 1343.2999999999886 1363.2999999999886 1383.2999999999884 1403.2999999999884 1423.2999999999884 1443.2999999999884 1463.2999999999884 1483.2999999999884 1503.2999999999884 1523.2999999999884 1543.2999999999884
cb_05,26.0,enc_trial,stim,response,Miami trip,1116.6999999999532,enc_trial,1.0,26.0,t_s_04_2,travel_shared,fold-c,instant camera,5.0,competing,close,paired,t_s_04_2.jpg,,travel-b1,Iceland trip,Miami trip,sub-87,0.0,0.0,1.0,1.0,0.4951171875 0.4990234375 0.50390625 0.513671875 0.5400390625 0.572265625 0.595703125 0.62890625 0.6689453125 0.71875 0.7958984375 0.8125 0.818359375 0.822265625 0.8232421875 0.8232421875 0.8232421875 0.8232421875 0.8232421875 0.8232421875 0.82421875 0.8251953125 0.8271484375 0.8310546875 0.83984375 0.8525390625 0.85546875 0.8564453125 0.8564453125 0.8564453125 0.8564453125 0.8564453125 0.85546875 0.8544921875 0.853515625,0.8229166666666666 0.8151041666666666 0.7903645833333334 0.7473958333333333 0.6484375 0.4908854166666666 0.40755208333333337 0.30598958333333337 0.20182291666666666 0.109375 0.02083333333333337 0.01692708333333337 0.01692708333333337 0.01953125 0.02083333333333337 0.02083333333333337 0.02083333333333337 0.02083333333333337 0.02083333333333337 0.02083333333333337 0.02083333333333337 0.02213541666666663 0.02473958333333337 0.02994791666666663 0.03776041666666663 0.05208333333333337 0.05859375 0.06510416666666663 0.0703125 0.07682291666666663 0.08072916666666663 0.08203125 0.08463541666666663 0.0859375 0.08723958333333337,383.39999999996513 403.39999999996513 423.39999999996513 443.39999999996513 463.39999999996513 483.39999999996513 503.39999999996513 523.3999999999652 543.3999999999652 563.3999999999652 583.3999999999652 603.3999999999652 623.3999999999652 643.3999999999652 663.3999999999652 683.3999999999652 703.3999999999651 723.3999999999651 743.3999999999651 763.3999999999651 783.3999999999651 803.3999999999651 823.3999999999651 843.3999999999651 863.3999999999651 883.3999999999651 903.3999999999652 923.3999999999652 943.3999999999652 963.3999999999652 983.3999999999652 1003.3999999999652 1023.3999999999652 1043.399999999965 1063.399999999965
cb_05,27.0,enc_trial,stim,response,Iceland trip,1599.2000000238183,enc_trial,1.0,27.0,t_i_17_2,travel_Iceland,fold-e,binoculars,5.0,unique,far,paired,t_i_17_2.jpg,Iceland,travel-b1,Iceland trip,Miami trip,sub-87,0.0,0.0,1.0,1.0,0.5029296875 0.50390625 0.5068359375 0.5126953125 0.517578125 0.541015625 0.556640625 0.5751953125 0.595703125 0.615234375 0.6376953125 0.673828125 0.6884765625 0.6943359375 0.708984375 0.7548828125 0.767578125 0.7763671875 0.783203125 0.7861328125 0.7880859375 0.7880859375 0.78515625 0.78125 0.77734375 0.7744140625 0.7734375 0.7734375 0.7724609375 0.7724609375 0.7724609375 0.7724609375 0.7724609375 0.7763671875 0.783203125 0.791015625 0.79296875 0.7890625 0.7724609375 0.728515625 0.537109375 0.4130859375 0.2734375 0.1435546875 0.04296875 -0.0439453125 -0.044921875 -0.044921875 -0.0400390625 -0.033203125 -0.017578125 -0.0078125 0.0048828125 0.0146484375 0.01953125 0.021484375 0.0244140625 0.029296875 0.0390625 0.0537109375 0.0830078125 0.0927734375 0.0966796875 0.0966796875 0.0966796875 0.0986328125 0.1044921875 0.115234375 0.1259765625 0.1298828125 0.130859375,0.8138020833333334 0.8059895833333334 0.7942708333333334 0.7786458333333334 0.7604166666666666 0.703125 0.6744791666666667 0.6458333333333333 0.6171875 0.5794270833333333 0.5221354166666667 0.359375 0.2395833333333333 0.2044270833333333 0.14322916666666666 0.05729166666666662 0.0546875 0.06380208333333337 0.07682291666666663 0.08854166666666663 0.10677083333333336 0.11588541666666664 0.12760416666666666 0.13541666666666666 0.140625 0.14973958333333334 0.15364583333333334 0.15625 0.15755208333333334 0.15755208333333334 0.15755208333333334 0.15755208333333334 0.15755208333333334 0.15755208333333334 0.15755208333333334 0.15494791666666666 0.15104166666666666 0.14453125 0.12890625 0.10807291666666664 0.07421875 0.07161458333333337 0.07161458333333337 0.07161458333333337 0.07291666666666663 0.08072916666666663 0.08203125 0.08463541666666663 0.08854166666666663 0.09244791666666664 0.09765625 0.09895833333333336 0.10026041666666664 0.10026041666666664 0.10026041666666664 0.10026041666666664 0.1015625 0.10416666666666664 0.10677083333333336 0.109375 0.11328125 0.11588541666666664 0.11588541666666664 0.11588541666666664 0.11588541666666664 0.1171875 0.11848958333333336 0.12369791666666664 0.12760416666666666 0.12890625 0.12890625,166.8999999999651 186.8999999999651 206.8999999999651 226.8999999999651 246.8999999999651 266.8999999999651 286.89999999996513 306.89999999996513 326.89999999996513 346.89999999996513 366.89999999996513 386.89999999996513 406.89999999996513 426.89999999996513 446.89999999996513 466.89999999996513 486.89999999996513 506.89999999996513 526.8999999999652 546.8999999999652 566.8999999999652 586.8999999999652 606.8999999999652 626.8999999999652 646.8999999999652 666.8999999999652 686.8999999999652 706.8999999999651 726.8999999999651 746.8999999999651 766.8999999999651 786.8999999999651 806.8999999999651 826.8999999999651 846.8999999999651 866.8999999999651 886.8999999999651 906.8999999999652 926.8999999999652 946.8999999999652 966.8999999999652 986.8999999999652 1006.8999999999652 1026.899999999965 1046.899999999965 1066.899999999965 1086.899999999965 1106.899999999965 1126.899999999965 1146.899999999965 1166.899999999965 1186.899999999965 1206.899999999965 1226.899999999965 1246.899999999965 1266.899999999965 1286.899999999965 1306.899999999965 1326.899999999965 1346.899999999965 1366.899999999965 1386.8999999999648 1406.8999999999648 1426.8999999999648 1446.8999999999648 1466.8999999999648 1486.8999999999648 1506.8999999999648 1526.8999999999648 1546.8999999999648 1566.8999999999648
cb_05,28.0,enc_trial,stim,response,Iceland trip,1539.500000047672,enc_trial,1.0,28.0,t_s_23_1,travel_shared,fold-c,ball cap,5.0,competing,close,paired,t_s_23_1.jpg,,travel-b1,Iceland trip,Miami trip,sub-87,0.0,0.0,0.0,1.0,0.51953125 0.51953125 0.521484375 0.52734375 0.541015625 0.5556640625 0.5576171875 0.55859375 0.5556640625 0.55078125 0.5498046875 0.5498046875 0.5498046875 0.5498046875 0.5498046875 0.5615234375 0.5791015625 0.603515625 0.6123046875 0.615234375 0.595703125 0.5576171875 0.5146484375 0.474609375 0.439453125 0.3583984375 0.345703125 0.31640625 0.298828125 0.28125 0.248046875 0.2392578125 0.2353515625 0.234375 0.234375 0.234375 0.2333984375 0.228515625 0.2255859375 0.2177734375 0.1904296875 0.17578125 0.1669921875 0.1650390625 0.1640625 0.1640625 0.1640625 0.1640625 0.1640625 0.1640625 0.1640625 0.1640625 0.1640625 0.1630859375 0.1611328125,0.83984375 0.8111979166666666 0.7747395833333334 0.7252604166666667 0.6614583333333333 0.546875 0.4986979166666666 0.4440104166666666 0.34244791666666663 0.26953125 0.2200520833333333 0.21744791666666666 0.21744791666666666 0.21744791666666666 0.21744791666666666 0.21744791666666666 0.22135416666666666 0.2317708333333333 0.2356770833333333 0.23828125 0.2473958333333333 0.25130208333333337 0.25130208333333337 0.25130208333333337 0.24609375 0.21744791666666666 0.21354166666666666 0.19921875 0.19010416666666666 0.1796875 0.16666666666666666 0.1640625 0.16276041666666666 0.16276041666666666 0.16276041666666666 0.16276041666666666 0.16276041666666666 0.16276041666666666 0.1640625 0.16536458333333334 0.16536458333333334 0.16015625 0.15625 0.15494791666666666 0.15494791666666666 0.15494791666666666 0.15494791666666666 0.15494791666666666 0.15494791666666666 0.15494791666666666 0.15494791666666666 0.15494791666666666 0.15494791666666666 0.15364583333333334 0.15104166666666666,416.7999999999884 436.7999999999884 456.7999999999884 476.7999999999884 496.7999999999884 516.7999999999884 536.7999999999884 556.7999999999884 576.7999999999884 596.7999999999884 616.7999999999884 636.7999999999884 656.7999999999884 676.7999999999884 696.7999999999884 716.7999999999884 736.7999999999884 756.7999999999884 776.7999999999884 796.7999999999884 816.7999999999884 836.7999999999884 856.7999999999884 876.7999999999884 896.7999999999884 916.7999999999884 936.7999999999884 956.7999999999884 976.7999999999884 996.7999999999884 1016.7999999999884 1036.7999999999884 1056.7999999999884 1076.7999999999884 1096.7999999999884 1116.7999999999884 1136.7999999999886 1156.7999999999886 1176.7999999999886 1196.7999999999886 1216.7999999999886 1236.7999999999886 1256.7999999999886 1276.7999999999886 1296.7999999999886 1316.7999999999886 1336.7999999999886 1356.7999999999886 1376.7999999999884 1396.7999999999884 1416.7999999999884 1436.7999999999884 1456.7999999999884 1476.7999999999884 1496.7999999999884
cb_05,29.0,enc_trial,stim,response,Iceland trip,1115.3000000238535,enc_trial,1.0,29.0,t_s_24_2,travel_shared,fold-c,ear plugs,5.0,competing,close,paired,t_s_24_2.jpg,,travel-b1,Iceland trip,Miami trip,sub-87,1.0,1.0,0.0,0.0,0.498046875 0.4970703125 0.498046875 0.5029296875 0.5166015625 0.5791015625 0.623046875 0.6650390625 0.6953125 0.7099609375 0.7099609375 0.69921875 0.67578125 0.6279296875 0.55078125 0.38671875 0.2900390625 0.2529296875 0.2421875 0.2314453125 0.2294921875 0.2275390625 0.2216796875 0.212890625 0.201171875 0.138671875 0.123046875 0.10546875 0.10546875 0.1044921875,0.8138020833333334 0.8046875 0.7864583333333334 0.7513020833333334 0.6848958333333333 0.46875 0.34895833333333337 0.24869791666666666 0.1848958333333333 0.15104166666666666 0.12760416666666666 0.12369791666666664 0.12239583333333336 0.13411458333333334 0.15234375 0.18359375 0.18619791666666666 0.18619791666666666 0.18619791666666666 0.18619791666666666 0.1809895833333333 0.17447916666666666 0.16796875 0.16145833333333334 0.15234375 0.12369791666666664 0.11848958333333336 0.11328125 0.11328125 0.11328125,400.0 420.0 440.0 460.0 480.0 500.0 520.0 540.0 560.0 580.0 600.0 620.0 640.0 660.0 680.0 700.0 720.0 740.0 760.0 780.0 800.0 820.0 840.0 860.0 880.0 900.0 920.0 940.0 960.0 980.0
cb_05,30.0,enc_trial,stim,response,Iceland trip,1472.7000000357516,enc_trial,1.0,30.0,t_i_11_1,travel_Iceland,fold-d,headlamp,5.0,unique,close,paired,t_i_11_1.jpg,Iceland,travel-b1,Iceland trip,Miami trip,sub-87,1.0,1.0,1.0,1.0,0.4892578125 0.490234375 0.4912109375 0.4921875 0.4921875 0.4921875 0.4951171875 0.49609375 0.4970703125 0.498046875 0.5 0.51171875 0.5185546875 0.5302734375 0.5439453125 0.5615234375 0.6103515625 0.6318359375 0.6455078125 0.6533203125 0.65625 0.6572265625 0.6572265625 0.6552734375 0.640625 0.615234375 0.5048828125 0.4306640625 0.34375 0.2578125 0.1796875 0.1201171875 0.119140625 0.119140625 0.1220703125 0.1259765625 0.1357421875 0.1396484375 0.14453125 0.1494140625 0.154296875 0.1572265625 0.16015625 0.166015625 0.1787109375 0.20703125 0.2138671875 0.21484375 0.21484375 0.21484375 0.21484375 0.21484375 0.21484375 0.21484375 0.205078125 0.1875 0.1435546875 0.123046875 0.11328125 0.111328125,0.8125 0.8111979166666666 0.8072916666666666 0.8046875 0.7994791666666666 0.79296875 0.76171875 0.7395833333333333 0.7213541666666667 0.7018229166666667 0.6822916666666667 0.6263020833333333 0.5963541666666667 0.5546875 0.5013020833333333 0.44140625 0.32421875 0.28255208333333337 0.25520833333333337 0.23828125 0.2356770833333333 0.234375 0.234375 0.2395833333333333 0.25390625 0.26692708333333337 0.28125 0.28125 0.27213541666666663 0.25 0.2239583333333333 0.19401041666666666 0.1927083333333333 0.19010416666666666 0.18619791666666666 0.18359375 0.17578125 0.171875 0.16927083333333334 0.16666666666666666 0.1640625 0.1640625 0.1640625 0.1640625 0.16666666666666666 0.1796875 0.1848958333333333 0.1848958333333333 0.1848958333333333 0.1848958333333333 0.1848958333333333 0.1848958333333333 0.1848958333333333 0.1848958333333333 0.18359375 0.17447916666666666 0.15364583333333334 0.14583333333333334 0.14192708333333334 0.140625,116.29999999998836 136.29999999998836 156.2999999999884 176.29999999998836 196.29999999998842 216.29999999998842 236.29999999998842 256.2999999999884 276.2999999999884 296.29999999998836 316.29999999998836 336.29999999998836 356.2999999999884 376.2999999999884 396.2999999999884 416.2999999999884 436.2999999999884 456.2999999999884 476.2999999999884 496.2999999999884 516.2999999999884 536.2999999999884 556.2999999999884 576.2999999999884 596.2999999999884 616.2999999999884 636.2999999999884 656.2999999999884 676.2999999999884 696.2999999999884 716.2999999999884 736.2999999999884 756.2999999999884 776.2999999999884 796.2999999999884 816.2999999999884 836.2999999999884 856.2999999999884 876.2999999999884 896.2999999999884 916.2999999999884 936.2999999999884 956.2999999999884 976.2999999999884 996.2999999999884 1016.2999999999884 1036.2999999999884 1056.2999999999884 1076.2999999999884 1096.2999999999884 1116.2999999999884 1136.2999999999886 1156.2999999999886 1176.2999999999886 1196.2999999999886 1216.2999999999886 1236.2999999999886 1256.2999999999886 1276.2999999999886 1296.2999999999886
cb_05,31.0,enc_trial,stim,response,Iceland trip,1800.0000000000582,enc_trial,1.0,31.0,t_s_23_2,travel_shared,fold-c,ball cap,5.0,competing,close,paired,t_s_23_2.jpg,,travel-b1,Iceland trip,Miami trip,sub-87,0.0,0.0,0.0,1.0,0.5146484375 0.5107421875 0.5029296875 0.4921875 0.482421875 0.46484375 0.4599609375 0.4580078125 0.45703125 0.45703125 0.4580078125 0.4599609375 0.4599609375 0.4599609375 0.4599609375 0.4443359375 0.43359375 0.4208984375 0.408203125 0.392578125 0.3759765625 0.33984375 0.3212890625 0.3056640625 0.2939453125 0.2783203125 0.2763671875 0.275390625 0.275390625 0.2744140625 0.271484375 0.2607421875 0.251953125 0.2353515625 0.2158203125 0.1865234375 0.1513671875 0.1357421875 0.1328125 0.130859375 0.130859375 0.130859375 0.130859375 0.130859375 0.130859375 0.130859375 0.130859375 0.130859375 0.130859375 0.130859375 0.130859375 0.1435546875 0.1552734375 0.1689453125 0.18359375 0.1865234375 0.1865234375 0.1865234375 0.1865234375 0.1865234375 0.1865234375 0.1865234375 0.1865234375 0.1865234375 0.1865234375 0.1865234375 0.1865234375 0.1865234375 0.1865234375 0.1865234375 0.1875 0.19140625 0.19140625 0.1923828125 0.189453125 0.158203125 0.138671875 0.1259765625 0.123046875 0.1220703125,0.8333333333333334 0.8294270833333334 0.8151041666666666 0.7955729166666666 0.7786458333333334 0.734375 0.7174479166666667 0.703125 0.6901041666666667 0.6796875 0.6627604166666667 0.6171875 0.58984375 0.55859375 0.5247395833333333 0.44140625 0.41536458333333337 0.39583333333333337 0.3815104166666666 0.3671875 0.35677083333333337 0.33723958333333337 0.33072916666666663 0.32291666666666663 0.31770833333333337 0.31119791666666663 0.30989583333333337 0.30989583333333337 0.30859375 0.30729166666666663 0.3046875 0.29036458333333337 0.27864583333333337 0.25911458333333337 0.234375 0.19791666666666666 0.16276041666666666 0.14322916666666666 0.13802083333333334 0.13411458333333334 0.13411458333333334 0.13411458333333334 0.13411458333333334 0.13411458333333334 0.13411458333333334 0.13411458333333334 0.13411458333333334 0.13411458333333334 0.13411458333333334 0.13411458333333334 0.13411458333333334 0.13541666666666666 0.13802083333333334 0.140625 0.14322916666666666 0.14453125 0.14453125 0.14453125 0.14453125 0.14453125 0.14453125 0.14453125 0.14453125 0.14453125 0.14453125 0.14453125 0.14453125 0.14453125 0.14453125 0.14453125 0.14453125 0.14453125 0.14453125 0.14322916666666666 0.13932291666666666 0.12760416666666666 0.12369791666666664 0.12239583333333336 0.12239583333333336 0.12239583333333336,49.800000000046566 69.80000000004657 89.80000000004655 109.80000000004655 129.80000000004657 149.80000000004657 169.80000000004657 189.80000000004657 209.80000000004657 229.80000000004657 249.80000000004657 269.80000000004657 289.80000000004657 309.80000000004657 329.80000000004657 349.80000000004657 369.80000000004657 389.80000000004657 409.80000000004657 429.80000000004657 449.80000000004657 469.80000000004657 489.80000000004657 509.80000000004657 529.8000000000466 549.8000000000466 569.8000000000466 589.8000000000466 609.8000000000466 629.8000000000466 649.8000000000466 669.8000000000466 689.8000000000467 709.8000000000467 729.8000000000467 749.8000000000467 769.8000000000467 789.8000000000467 809.8000000000467 829.8000000000467 849.8000000000467 869.8000000000467 889.8000000000467 909.8000000000467 929.8000000000467 949.8000000000467 969.8000000000467 989.8000000000467 1009.8000000000467 1029.8000000000468 1049.8000000000468 1069.8000000000468 1089.8000000000468 1109.8000000000468 1129.8000000000466 1149.8000000000466 1169.8000000000466 1189.8000000000466 1209.8000000000466 1229.8000000000466 1249.8000000000466 1269.8000000000466 1289.8000000000466 1309.8000000000466 1329.8000000000466 1349.8000000000466 1369.8000000000466 1389.8000000000463 1409.8000000000463 1429.8000000000463 1449.8000000000463 1469.8000000000463 1489.8000000000463 1509.8000000000463 1529.8000000000463 1549.8000000000463 1569.8000000000463 1589.8000000000463 1609.8000000000463 1629.8000000000463
cb_05,32.0,enc_trial,stim,response,Iceland trip,1044.2000000000116,enc_trial,1.0,32.0,t_s_18_1,travel_shared,fold-a,first aid kit,5.0,competing,far,paired,t_s_18_1.jpg,,travel-b1,Iceland trip,Miami trip,sub-87,0.0,0.0,0.0,0.0,0.51171875 0.5087890625 0.5048828125 0.501953125 0.4970703125 0.4912109375 0.48046875 0.4755859375 0.47265625 0.4716796875 0.470703125 0.4716796875 0.4736328125 0.474609375 0.474609375 0.474609375 0.474609375 0.474609375 0.4716796875 0.462890625 0.4326171875 0.3603515625 0.330078125 0.310546875 0.302734375 0.30078125 0.2998046875 0.30078125 0.3017578125 0.3017578125 0.2978515625 0.2919921875 0.2861328125 0.279296875 0.271484375 0.265625 0.259765625 0.255859375 0.25 0.236328125 0.21484375 0.2021484375 0.1884765625 0.171875 0.15625 0.142578125 0.130859375,0.8346354166666666 0.8268229166666666 0.8177083333333334 0.8072916666666666 0.7955729166666666 0.7799479166666666 0.7330729166666667 0.70703125 0.6770833333333333 0.6471354166666667 0.5807291666666667 0.5690104166666667 0.5625 0.5598958333333333 0.5559895833333333 0.5533854166666667 0.55078125 0.5494791666666667 0.5455729166666667 0.53515625 0.49609375 0.38020833333333337 0.32682291666666663 0.28385416666666663 0.26041666666666663 0.25130208333333337 0.24869791666666666 0.2473958333333333 0.2473958333333333 0.2473958333333333 0.2434895833333333 0.24088541666666666 0.23828125 0.234375 0.22916666666666666 0.2239583333333333 0.21744791666666666 0.2122395833333333 0.203125 0.1875 0.16666666666666666 0.15625 0.14583333333333334 0.1328125 0.12109375 0.11328125 0.10807291666666664,16.400000000023287 36.400000000023276 56.400000000023276 76.40000000002327 96.40000000002328 116.40000000002328 136.40000000002323 156.40000000002325 176.40000000002323 196.40000000002323 216.40000000002323 236.40000000002323 256.40000000002317 276.40000000002317 296.40000000002317 316.40000000002317 336.40000000002317 356.40000000002317 376.40000000002317 396.40000000002317 416.40000000002317 436.40000000002317 456.40000000002317 476.40000000002317 496.40000000002317 516.4000000000232 536.4000000000232 556.4000000000232 576.4000000000233 596.4000000000233 616.4000000000233 636.4000000000233 656.4000000000233 676.4000000000233 696.4000000000232 716.4000000000232 736.4000000000232 756.4000000000232 776.4000000000232 796.4000000000232 816.4000000000232 836.4000000000232 856.4000000000232 876.4000000000232 896.4000000000232 916.4000000000232 936.4000000000232
cb_05,33.0,enc_trial,stim,response,Iceland trip,1260.800000035786,enc_trial,1.0,33.0,t_i_11_2,travel_Iceland,fold-d,headlamp,5.0,unique,close,paired,t_i_11_2.jpg,Iceland,travel-b1,Iceland trip,Miami trip,sub-87,1.0,1.0,1.0,1.0,0.50390625 0.50390625 0.505859375 0.513671875 0.5224609375 0.525390625 0.515625 0.498046875 0.4775390625 0.45703125 0.4150390625 0.3837890625 0.3662109375 0.353515625 0.3427734375 0.33203125 0.3134765625 0.3056640625 0.2978515625 0.291015625 0.2841796875 0.2646484375 0.2548828125 0.2470703125 0.2431640625 0.2412109375 0.23828125 0.236328125 0.232421875 0.2275390625 0.2197265625 0.19921875 0.185546875 0.1796875 0.17578125 0.1748046875 0.173828125 0.173828125 0.173828125 0.173828125 0.173828125 0.17578125 0.1796875 0.181640625 0.1826171875 0.1826171875 0.1826171875 0.18359375 0.18359375 0.181640625 0.171875 0.16796875 0.1669921875 0.166015625 0.166015625 0.166015625 0.166015625 0.1650390625 0.1640625 0.1640625 0.1630859375 0.1630859375 0.162109375,0.76171875 0.75 0.7252604166666667 0.6953125 0.6536458333333333 0.6080729166666667 0.5247395833333333 0.484375 0.4440104166666666 0.4127604166666666 0.3671875 0.33984375 0.32552083333333337 0.31380208333333337 0.30208333333333337 0.29166666666666663 0.27213541666666663 0.26432291666666663 0.2578125 0.25130208333333337 0.24609375 0.23307291666666666 0.2278645833333333 0.2239583333333333 0.22265625 0.22135416666666666 0.2200520833333333 0.21875 0.21744791666666666 0.21354166666666666 0.2109375 0.2005208333333333 0.19401041666666666 0.19010416666666666 0.18619791666666666 0.1848958333333333 0.18359375 0.18359375 0.18359375 0.18359375 0.18359375 0.18229166666666666 0.17838541666666666 0.17708333333333334 0.17578125 0.17578125 0.17447916666666666 0.17447916666666666 0.17317708333333334 0.171875 0.16927083333333334 0.16666666666666666 0.16536458333333334 0.16536458333333334 0.16536458333333334 0.16536458333333334 0.16536458333333334 0.16536458333333334 0.1640625 0.1640625 0.16276041666666666 0.16276041666666666 0.16276041666666666,0.0 20.0 40.0 60.0 80.0 100.0 120.0 140.0 160.0 180.0 200.0 220.0 240.0 260.0 280.0 300.0 320.0 340.0 360.0 380.0 400.0 420.0 440.0 460.0 480.0 500.0 520.0 540.0 560.0 580.0 600.0 620.0 640.0 660.0 680.0 700.0 720.0 740.0 760.0 780.0 800.0 820.0 840.0 860.0 880.0 900.0 920.0 940.0 960.0 980.0 1000.0 1020.0 1040.0 1060.0 1080.0 1100.0 1120.0 1140.0 1160.0 1180.0 1200.0 1220.0 1240.0
cb_05,34.0,enc_trial,stim,response,Iceland trip,1477.8000000238535,enc_trial,1.0,34.0,t_i_06_1,travel_Iceland,fold-d,knit hat,5.0,unique,close,paired,t_i_06_1.jpg,Iceland,travel-b1,Iceland trip,Miami trip,sub-87,1.0,1.0,1.0,1.0,0.5283203125 0.5283203125 0.5205078125 0.5126953125 0.5048828125 0.4814453125 0.4638671875 0.4404296875 0.416015625 0.3896484375 0.32421875 0.2919921875 0.2529296875 0.2333984375 0.2177734375 0.2001953125 0.1982421875 0.197265625 0.197265625 0.197265625 0.197265625 0.197265625 0.197265625 0.197265625 0.197265625 0.1962890625 0.1962890625 0.1982421875 0.212890625 0.2451171875 0.4306640625 0.5029296875 0.5595703125 0.5966796875 0.6220703125 0.6572265625 0.6708984375 0.6865234375 0.69921875 0.70703125 0.7109375 0.6982421875 0.66015625 0.5849609375 0.4921875 0.2822265625 0.1904296875 0.126953125 0.0966796875 0.0888671875 0.0888671875 0.0888671875 0.0888671875 0.0888671875 0.0888671875 0.1015625 0.111328125 0.115234375,0.8059895833333334 0.796875 0.76953125 0.7447916666666667 0.7122395833333333 0.6223958333333333 0.56640625 0.5078125 0.453125 0.39973958333333337 0.29817708333333337 0.25651041666666663 0.20963541666666666 0.1888020833333333 0.17317708333333334 0.15494791666666666 0.15234375 0.15234375 0.15234375 0.15234375 0.15234375 0.15234375 0.15234375 0.15234375 0.15234375 0.15364583333333334 0.15625 0.16145833333333334 0.16927083333333334 0.17838541666666666 0.22265625 0.23697916666666666 0.24088541666666666 0.24088541666666666 0.24088541666666666 0.22526041666666666 0.21354166666666666 0.19921875 0.1848958333333333 0.171875 0.15885416666666666 0.15104166666666666 0.14453125 0.140625 0.13802083333333334 0.14453125 0.15625 0.16666666666666666 0.171875 0.17447916666666666 0.17447916666666666 0.17447916666666666 0.17447916666666666 0.17447916666666666 0.17447916666666666 0.17317708333333334 0.16927083333333334 0.16927083333333334,216.79999999998842 236.79999999998842 256.7999999999884 276.7999999999884 296.79999999998836 316.79999999998836 336.79999999998836 356.7999999999884 376.7999999999884 396.7999999999884 416.7999999999884 436.7999999999884 456.7999999999884 476.7999999999884 496.7999999999884 516.7999999999884 536.7999999999884 556.7999999999884 576.7999999999884 596.7999999999884 616.7999999999884 636.7999999999884 656.7999999999884 676.7999999999884 696.7999999999884 716.7999999999884 736.7999999999884 756.7999999999884 776.7999999999884 796.7999999999884 816.7999999999884 836.7999999999884 856.7999999999884 876.7999999999884 896.7999999999884 916.7999999999884 936.7999999999884 956.7999999999884 976.7999999999884 996.7999999999884 1016.7999999999884 1036.7999999999884 1056.7999999999884 1076.7999999999884 1096.7999999999884 1116.7999999999884 1136.7999999999886 1156.7999999999886 1176.7999999999886 1196.7999999999886 1216.7999999999886 1236.7999999999886 1256.7999999999886 1276.7999999999886 1296.7999999999886 1316.7999999999886 1336.7999999999886 1356.7999999999886
cb_05,35.0,enc_trial,stim,response,Iceland trip,909.6000000357744,enc_trial,1.0,35.0,t_s_16_1,travel_shared,fold-b-single,chapstick,5.0,competing,,single,t_s_16_1.jpg,,travel-b1,Iceland trip,Miami trip,sub-87,1.0,,1.0,,0.5 0.5 0.5 0.5 0.5009765625 0.5 0.4951171875 0.4833984375 0.466796875 0.4423828125 0.404296875 0.388671875 0.3779296875 0.36328125 0.3408203125 0.291015625 0.26953125 0.2529296875 0.236328125 0.2197265625 0.1845703125 0.1669921875 0.1650390625 0.1640625 0.1640625 0.1640625 0.1630859375 0.1630859375 0.1630859375 0.1630859375 0.1630859375 0.16015625 0.1572265625 0.1552734375 0.1533203125 0.1513671875 0.1513671875 0.150390625 0.150390625 0.1484375 0.1474609375,0.7955729166666666 0.7955729166666666 0.7955729166666666 0.7955729166666666 0.7955729166666666 0.7825520833333334 0.7708333333333334 0.75 0.7213541666666667 0.6861979166666667 0.6158854166666667 0.5729166666666667 0.5364583333333333 0.4778645833333334 0.4010416666666666 0.25911458333333337 0.2109375 0.18229166666666666 0.16536458333333334 0.15104166666666666 0.12760416666666666 0.12109375 0.11979166666666664 0.11979166666666664 0.11848958333333336 0.11848958333333336 0.11848958333333336 0.11848958333333336 0.11848958333333336 0.11848958333333336 0.11848958333333336 0.11848958333333336 0.11848958333333336 0.1171875 0.1171875 0.1171875 0.1171875 0.1171875 0.1171875 0.11848958333333336 0.11979166666666664,33.900000000023276 53.900000000023276 73.90000000002328 93.90000000002328 113.90000000002328 133.90000000002328 153.90000000002328 173.90000000002328 193.90000000002328 213.90000000002328 233.90000000002328 253.90000000002328 273.9000000000233 293.9000000000233 313.9000000000233 333.9000000000233 353.90000000002334 373.90000000002334 393.90000000002334 413.90000000002334 433.90000000002334 453.90000000002334 473.90000000002334 493.90000000002334 513.9000000000234 533.9000000000234 553.9000000000234 573.9000000000233 593.9000000000233 613.9000000000233 633.9000000000233 653.9000000000233 673.9000000000233 693.9000000000232 713.9000000000232 733.9000000000232 753.9000000000232 773.9000000000232 793.9000000000232 813.9000000000232 833.9000000000232
